time,seconds_elapsed,z,y,x
1683474503845461200,0.020461181640625,0.021380282938480377,0.02076941914856434,-0.003054326167330146
1683474503855418400,0.03041845703125,0.02321287989616394,0.019547687843441963,-0.0024434609804302454
1683474503865448700,0.04044873046875,0.02321287989616394,0.019547687843441963,-0.003054326167330146
1683474503875437000,0.05043701171875,0.021991148591041565,0.019547687843441963,-0.001832595793530345
1683474503885438200,0.060438232421875,0.022602014243602753,0.02015855349600315,-0.001832595793530345
1683474503895426000,0.070426025390625,0.022602014243602753,0.02015855349600315,-0.0024434609804302454
1683474503905458000,0.0804580078125,0.02382374368607998,0.019547687843441963,-0.001832595793530345
1683474503915414800,0.090414794921875,0.02382374368607998,0.019547687843441963,-0.003054326167330146
1683474503925447000,0.100447021484375,0.022602014243602753,0.02076941914856434,-0.003054326167330146
1683474503935434500,0.1104345703125,0.022602014243602753,0.02015855349600315,-0.001832595793530345
1683474503945461000,0.1204609375,0.022602014243602753,0.02076941914856434,-0.0012217304902151227
1683474503955423500,0.130423583984375,0.02321287989616394,0.02076941914856434,-0.0024434609804302454
1683474503965456100,0.1404560546875,0.022602014243602753,0.019547687843441963,-0.0012217304902151227
1683474503975413200,0.150413330078125,0.022602014243602753,0.02015855349600315,-0.0012217304902151227
1683474503985445400,0.1604453125,0.022602014243602753,0.02076941914856434,-0.001832595793530345
1683474503995432700,0.1704326171875,0.02321287989616394,0.021380282938480377,-0.001832595793530345
1683474504005464800,0.18046484375,0.022602014243602753,0.021380282938480377,-0.001832595793530345
1683474504015422000,0.190421875,0.02321287989616394,0.02015855349600315,-0.0024434609804302454
1683474504025453800,0.200453857421875,0.021991148591041565,0.021380282938480377,-0.001832595793530345
1683474504035441400,0.21044140625,0.02321287989616394,0.021380282938480377,-0.0012217304902151227
1683474504045442800,0.22044287109375,0.02321287989616394,0.02076941914856434,-0.001832595793530345
1683474504055430400,0.230430419921875,0.022602014243602753,0.021380282938480377,-0.001832595793530345
1683474504065462500,0.240462646484375,0.02321287989616394,0.02076941914856434,-0.0024434609804302454
1683474504075419400,0.25041943359375,0.02321287989616394,0.02015855349600315,-0.0024434609804302454
1683474504085451500,0.260451416015625,0.022602014243602753,0.021380282938480377,-0.001832595793530345
1683474504095438800,0.27043896484375,0.022602014243602753,0.02076941914856434,-0.0024434609804302454
1683474504105440500,0.2804404296875,0.022602014243602753,0.019547687843441963,-0.0012217304902151227
1683474504115428000,0.290427978515625,0.021991148591041565,0.02076941914856434,-0.001832595793530345
1683474504125460000,0.3004599609375,0.022602014243602753,0.02015855349600315,-0.0012217304902151227
1683474504135078700,0.31007861328125,0.02382374368607998,0.021380282938480377,-0.003054326167330146
1683474504145449000,0.320448974609375,0.02382374368607998,0.02076941914856434,-0.0012217304902151227
1683474504155436800,0.330436767578125,0.022602014243602753,0.02076941914856434,-0.001832595793530345
1683474504165438000,0.34043798828125,0.021380282938480377,0.02076941914856434,-0.0012217304902151227
1683474504175425500,0.350425537109375,0.02321287989616394,0.02015855349600315,-0.0012217304902151227
1683474504185457400,0.36045751953125,0.02321287989616394,0.02015855349600315,-0.00366519158706069
1683474504195414500,0.37041455078125,0.021991148591041565,0.021380282938480377,-0.003054326167330146
1683474504205446700,0.38044677734375,0.02321287989616394,0.02015855349600315,-0.0012217304902151227
1683474504215434200,0.390434326171875,0.02321287989616394,0.02076941914856434,-0.0012217304902151227
1683474504225435400,0.400435302734375,0.02321287989616394,0.02015855349600315,-0.0006108652451075613
1683474504235423200,0.41042333984375,0.02321287989616394,0.019547687843441963,-0.0012217304902151227
1683474504245454800,0.420454833984375,0.02321287989616394,0.02076941914856434,-0.0012217304902151227
1683474504255183000,0.43018310546875,0.022602014243602753,0.021380282938480377,-0.001832595793530345
1683474504265444000,0.440444091796875,0.022602014243602753,0.02076941914856434,-0.0006108652451075613
1683474504275431700,0.450431640625,0.02321287989616394,0.02015855349600315,-0.0024434609804302454
1683474504285463800,0.4604638671875,0.022602014243602753,0.02076941914856434,-0.003054326167330146
1683474504295420700,0.470420654296875,0.022602014243602753,0.02076941914856434,-0.001832595793530345
1683474504305452500,0.48045263671875,0.022602014243602753,0.021380282938480377,-0.003054326167330146
1683474504315440400,0.4904404296875,0.02321287989616394,0.02076941914856434,-0.001832595793530345
1683474504325441800,0.50044189453125,0.02321287989616394,0.02076941914856434,-0.0024434609804302454
1683474504335429000,0.51042919921875,0.022602014243602753,0.02076941914856434,-0.001832595793530345
1683474504345461200,0.520461181640625,0.022602014243602753,0.021380282938480377,0
1683474504355418000,0.530418212890625,0.02321287989616394,0.021991148591041565,-0.001832595793530345
1683474504365450200,0.5404501953125,0.02321287989616394,0.02076941914856434,-0.001832595793530345
1683474504375437600,0.5504375,0.02321287989616394,0.02076941914856434,-0.0024434609804302454
1683474504385439000,0.56043896484375,0.02321287989616394,0.02076941914856434,-0.0006108652451075613
1683474504395426800,0.5704267578125,0.02382374368607998,0.02076941914856434,-0.0024434609804302454
1683474504405458700,0.580458740234375,0.02321287989616394,0.02076941914856434,-0.0024434609804302454
1683474504415416000,0.590416015625,0.02382374368607998,0.02076941914856434,-0.0024434609804302454
1683474504425447400,0.600447509765625,0.02321287989616394,0.019547687843441963,-0.00366519158706069
1683474504435435500,0.610435546875,0.022602014243602753,0.019547687843441963,-0.001832595793530345
1683474504445436700,0.620436767578125,0.02321287989616394,0.019547687843441963,-0.0024434609804302454
1683474504455424300,0.63042431640625,0.021991148591041565,0.021991148591041565,-0.001832595793530345
1683474504465456000,0.6404560546875,0.022602014243602753,0.02076941914856434,-0.001832595793530345
1683474504475413200,0.650413330078125,0.02321287989616394,0.021380282938480377,-0.001832595793530345
1683474504485445400,0.6604453125,0.02382374368607998,0.02015855349600315,-0.001832595793530345
1683474504495433000,0.670432861328125,0.02382374368607998,0.021380282938480377,-0.0012217304902151227
1683474504505464800,0.68046484375,0.02382374368607998,0.02076941914856434,-0.0024434609804302454
1683474504515422000,0.690421875,0.02382374368607998,0.02076941914856434,-0.0024434609804302454
1683474504525453800,0.700453857421875,0.02321287989616394,0.02076941914856434,-0.001832595793530345
1683474504535441400,0.71044140625,0.022602014243602753,0.021380282938480377,-0.001832595793530345
1683474504545442800,0.72044287109375,0.022602014243602753,0.021380282938480377,-0.0012217304902151227
1683474504555430400,0.730430419921875,0.02321287989616394,0.02076941914856434,-0.0012217304902151227
1683474504565462300,0.740462158203125,0.02321287989616394,0.021991148591041565,-0.0012217304902151227
1683474504575602400,0.7506025390625,0.02321287989616394,0.02076941914856434,-0.001832595793530345
1683474504585451800,0.76045166015625,0.02321287989616394,0.021380282938480377,-0.0024434609804302454
1683474504595438800,0.77043896484375,0.022602014243602753,0.021380282938480377,-0.001832595793530345
1683474504605440500,0.7804404296875,0.02321287989616394,0.021380282938480377,-0.001832595793530345
1683474504615428000,0.790427978515625,0.022602014243602753,0.02076941914856434,-0.001832595793530345
1683474504625460000,0.8004599609375,0.02321287989616394,0.02076941914856434,-0.001832595793530345
1683474504635416800,0.810416748046875,0.02382374368607998,0.02015855349600315,-0.003054326167330146
1683474504645449000,0.820448974609375,0.02382374368607998,0.021380282938480377,-0.0012217304902151227
1683474504655436500,0.8304365234375,0.02321287989616394,0.021991148591041565,-0.0012217304902151227
1683474504665438000,0.84043798828125,0.02321287989616394,0.021991148591041565,-0.001832595793530345
1683474504675425500,0.850425537109375,0.02321287989616394,0.021991148591041565,-0.0006108652451075613
1683474504685457700,0.860457763671875,0.02321287989616394,0.02076941914856434,-0.0012217304902151227
1683474504695414500,0.87041455078125,0.02382374368607998,0.02076941914856434,-0.003054326167330146
1683474504705460700,0.880460693359375,0.022602014243602753,0.02076941914856434,-0.0024434609804302454
1683474504715434200,0.890434326171875,0.024434609338641167,0.02015855349600315,-0.001832595793530345
1683474504725430300,0.90043017578125,0.02321287989616394,0.021380282938480377,-0.001832595793530345
1683474504735423200,0.91042333984375,0.02382374368607998,0.02076941914856434,-0.001832595793530345
1683474504745450000,0.920449951171875,0.021991148591041565,0.021380282938480377,-0.0024434609804302454
1683474504755443000,0.93044287109375,0.02321287989616394,0.02076941914856434,-0.001832595793530345
1683474504765439000,0.94043896484375,0.02321287989616394,0.02015855349600315,-0.0024434609804302454
1683474504775431700,0.950431640625,0.02321287989616394,0.02076941914856434,-0.001832595793530345
1683474504785458400,0.96045849609375,0.022602014243602753,0.02076941914856434,-0.001832595793530345
1683474504795421000,0.9704208984375,0.02321287989616394,0.021380282938480377,-0.001832595793530345
1683474504805453000,0.980453125,0.022602014243602753,0.02076941914856434,-0.001832595793530345
1683474504815440400,0.9904404296875,0.02321287989616394,0.02076941914856434,-0.0024434609804302454
1683474504825441800,1.00044189453125,0.02382374368607998,0.02015855349600315,-0.001832595793530345
1683474504835429600,1.0104296875,0.022602014243602753,0.021380282938480377,-0.001832595793530345
1683474504845461200,1.020461181640625,0.02321287989616394,0.021380282938480377,-0.001832595793530345
1683474504855418400,1.03041845703125,0.022602014243602753,0.02076941914856434,-0.0024434609804302454
1683474504865448700,1.04044873046875,0.02321287989616394,0.02015855349600315,-0.003054326167330146
1683474504875437000,1.05043701171875,0.022602014243602753,0.02076941914856434,-0.0024434609804302454
1683474504885438500,1.0604384765625,0.02321287989616394,0.02076941914856434,-0.0024434609804302454
1683474504895425800,1.07042578125,0.02321287989616394,0.02076941914856434,-0.0024434609804302454
1683474504905458000,1.0804580078125,0.022602014243602753,0.02076941914856434,-0.0024434609804302454
1683474504915415000,1.0904150390625,0.02382374368607998,0.02076941914856434,-0.0024434609804302454
1683474504925447000,1.100447021484375,0.02321287989616394,0.021380282938480377,-0.0012217304902151227
1683474504935434500,1.1104345703125,0.02321287989616394,0.021380282938480377,-0.0024434609804302454
1683474504945436000,1.120435791015625,0.021991148591041565,0.02015855349600315,-0.0024434609804302454
1683474504955423500,1.130423583984375,0.022602014243602753,0.02015855349600315,-0.0024434609804302454
1683474504965456100,1.1404560546875,0.02321287989616394,0.02076941914856434,-0.003054326167330146
1683474504975413200,1.150413330078125,0.02382374368607998,0.019547687843441963,-0.0012217304902151227
1683474504985445000,1.160445068359375,0.02321287989616394,0.02076941914856434,-0.0024434609804302454
1683474504995433000,1.170432861328125,0.022602014243602753,0.021380282938480377,-0.0012217304902151227
1683474505005464800,1.18046484375,0.02321287989616394,0.02015855349600315,-0.001832595793530345
1683474505015422000,1.190421875,0.022602014243602753,0.019547687843441963,-0.001832595793530345
1683474505025453800,1.200453857421875,0.02321287989616394,0.021991148591041565,-0.001832595793530345
1683474505035441400,1.21044140625,0.02321287989616394,0.021380282938480377,-0.001832595793530345
1683474505045442800,1.22044287109375,0.022602014243602753,0.021380282938480377,-0.0012217304902151227
1683474505055430400,1.230430419921875,0.022602014243602753,0.02076941914856434,-0.001832595793530345
1683474505065462500,1.240462646484375,0.02321287989616394,0.02076941914856434,-0.0024434609804302454
1683474505075419400,1.25041943359375,0.02382374368607998,0.02015855349600315,-0.0012217304902151227
1683474505085451500,1.260451416015625,0.02321287989616394,0.02015855349600315,-0.0024434609804302454
1683474505095439000,1.270439208984375,0.02321287989616394,0.02076941914856434,-0.001832595793530345
1683474505105440500,1.2804404296875,0.02321287989616394,0.021380282938480377,-0.0012217304902151227
1683474505115428000,1.290427978515625,0.02382374368607998,0.02076941914856434,-0.001832595793530345
1683474505125460000,1.3004599609375,0.022602014243602753,0.02076941914856434,-0.0006108652451075613
1683474505135417000,1.3104169921875,0.02321287989616394,0.02076941914856434,-0.0012217304902151227
1683474505145449000,1.320448974609375,0.022602014243602753,0.02076941914856434,-0.001832595793530345
1683474505155436500,1.3304365234375,0.02321287989616394,0.02076941914856434,-0.001832595793530345
1683474505165438000,1.34043798828125,0.02321287989616394,0.02076941914856434,-0.001832595793530345
1683474505175425500,1.350425537109375,0.02382374368607998,0.02076941914856434,-0.003054326167330146
1683474505185457700,1.360457763671875,0.02321287989616394,0.02015855349600315,-0.0006108652451075613
1683474505195414500,1.37041455078125,0.022602014243602753,0.02076941914856434,-0.001832595793530345
1683474505205446700,1.38044677734375,0.022602014243602753,0.02076941914856434,-0.0024434609804302454
1683474505215647700,1.390647705078125,0.02321287989616394,0.021380282938480377,-0.001832595793530345
1683474505225435600,1.400435546875,0.022602014243602753,0.021991148591041565,-0.001832595793530345
1683474505235423000,1.410423095703125,0.02321287989616394,0.021380282938480377,-0.001832595793530345
1683474505245455000,1.420455078125,0.021991148591041565,0.021380282938480377,-0.0012217304902151227
1683474505255442400,1.4304423828125,0.022602014243602753,0.02076941914856434,-0.0012217304902151227
1683474505265444000,1.440444091796875,0.021991148591041565,0.02076941914856434,-0.001832595793530345
1683474505275431400,1.450431396484375,0.022602014243602753,0.02076941914856434,-0.003054326167330146
1683474505285463800,1.4604638671875,0.02321287989616394,0.021380282938480377,-0.001832595793530345
1683474505295664600,1.47066455078125,0.021991148591041565,0.021380282938480377,-0.0012217304902151227
1683474505305452800,1.480452880859375,0.022602014243602753,0.021380282938480377,-0.001832595793530345
1683474505315440000,1.490440185546875,0.02321287989616394,0.02076941914856434,-0.001832595793530345
1683474505325441500,1.500441650390625,0.02321287989616394,0.021380282938480377,-0.001832595793530345
1683474505335429000,1.51042919921875,0.02321287989616394,0.02015855349600315,-0.001832595793530345
1683474505345461200,1.520461181640625,0.022602014243602753,0.019547687843441963,-0.003054326167330146
1683474505355418000,1.530418212890625,0.02321287989616394,0.02015855349600315,-0.001832595793530345
1683474505365450200,1.5404501953125,0.02321287989616394,0.02076941914856434,-0.0024434609804302454
1683474505375437800,1.550437744140625,0.02382374368607998,0.02076941914856434,-0.0024434609804302454
1683474505385439200,1.560439208984375,0.021991148591041565,0.021991148591041565,-0.001832595793530345
1683474505395426800,1.5704267578125,0.02321287989616394,0.021991148591041565,-0.001832595793530345
1683474505405458700,1.580458740234375,0.022602014243602753,0.019547687843441963,-0.0024434609804302454
1683474505415415800,1.590415771484375,0.022602014243602753,0.021380282938480377,-0.001832595793530345
1683474505425447700,1.60044775390625,0.02382374368607998,0.02015855349600315,-0.003054326167330146
1683474505435435500,1.610435546875,0.022602014243602753,0.02076941914856434,-0.001832595793530345
1683474505445437000,1.62043701171875,0.022602014243602753,0.02076941914856434,-0.0024434609804302454
1683474505454988500,1.629988525390625,0.02382374368607998,0.02015855349600315,-0.0024434609804302454
1683474505465456000,1.6404560546875,0.022602014243602753,0.02015855349600315,-0.0024434609804302454
1683474505475413200,1.650413330078125,0.02321287989616394,0.021380282938480377,-0.0006108652451075613
1683474505485445000,1.660445068359375,0.022602014243602753,0.021991148591041565,-0.0006108652451075613
1683474505495432700,1.6704326171875,0.02321287989616394,0.02015855349600315,-0.0024434609804302454
1683474505505464800,1.68046484375,0.022602014243602753,0.021380282938480377,-0.0012217304902151227
1683474505515422000,1.690421875,0.021991148591041565,0.021380282938480377,-0.001832595793530345
1683474505525453800,1.700453857421875,0.022602014243602753,0.02015855349600315,-0.0012217304902151227
1683474505535441400,1.71044140625,0.02321287989616394,0.02076941914856434,-0.001832595793530345
1683474505545443000,1.720443115234375,0.02321287989616394,0.02076941914856434,-0.001832595793530345
1683474505555430400,1.730430419921875,0.024434609338641167,0.021991148591041565,0
1683474505565462500,1.740462646484375,0.02321287989616394,0.021991148591041565,-0.0006108652451075613
1683474505575789600,1.75078955078125,0.02321287989616394,0.02015855349600315,-0.0012217304902151227
1683474505585451500,1.760451416015625,0.022602014243602753,0.02076941914856434,-0.001832595793530345
1683474505595439000,1.770439208984375,0.02321287989616394,0.02076941914856434,-0.001832595793530345
1683474505605440800,1.780440673828125,0.021991148591041565,0.02076941914856434,-0.0024434609804302454
1683474505615428000,1.790427978515625,0.022602014243602753,0.02076941914856434,-0.001832595793530345
1683474505625459700,1.800459716796875,0.02382374368607998,0.02076941914856434,-0.001832595793530345
1683474505635416800,1.810416748046875,0.02321287989616394,0.019547687843441963,-0.0024434609804302454
1683474505645448700,1.82044873046875,0.022602014243602753,0.02015855349600315,-0.001832595793530345
1683474505655436300,1.830436279296875,0.022602014243602753,0.02015855349600315,-0.0024434609804302454
1683474505665438000,1.84043798828125,0.02321287989616394,0.02076941914856434,-0.001832595793530345
1683474505675425500,1.850425537109375,0.02321287989616394,0.019547687843441963,-0.001832595793530345
1683474505685457700,1.860457763671875,0.02321287989616394,0.02076941914856434,-0.0024434609804302454
1683474505695414800,1.870414794921875,0.02382374368607998,0.02076941914856434,-0.0012217304902151227
1683474505705446700,1.88044677734375,0.02321287989616394,0.02015855349600315,-0.001832595793530345
1683474505715434200,1.890434326171875,0.022602014243602753,0.02076941914856434,-0.003054326167330146
1683474505725436000,1.900435791015625,0.02382374368607998,0.02076941914856434,-0.0024434609804302454
1683474505736152300,1.91115234375,0.022602014243602753,0.021380282938480377,-0.0012217304902151227
1683474505755442700,1.930442626953125,0.022602014243602753,0.021991148591041565,-0.0024434609804302454
1683474505765444400,1.9404443359375,0.02321287989616394,0.021380282938480377,-0.003054326167330146
1683474505775432000,1.950431884765625,0.022602014243602753,0.021380282938480377,-0.0024434609804302454
1683474505785477600,1.9604775390625,0.021991148591041565,0.02076941914856434,-0.003054326167330146
1683474505795421000,1.9704208984375,0.02321287989616394,0.021380282938480377,-0.0024434609804302454
1683474505805447200,1.980447265625,0.02321287989616394,0.021380282938480377,-0.003054326167330146
1683474505815440400,1.9904404296875,0.022602014243602753,0.021380282938480377,-0.001832595793530345
1683474505825436400,2.0004365234375,0.02382374368607998,0.02015855349600315,-0.0012217304902151227
1683474505835429400,2.010429443359375,0.02382374368607998,0.02076941914856434,-0.0024434609804302454
1683474505845456100,2.0204560546875,0.02321287989616394,0.02015855349600315,-0.0024434609804302454
1683474505855418400,2.03041845703125,0.022602014243602753,0.02076941914856434,-0.0024434609804302454
1683474505865443300,2.040443359375,0.02321287989616394,0.019547687843441963,-0.0024434609804302454
1683474505875437000,2.05043701171875,0.024434609338641167,0.02076941914856434,-0.001832595793530345
1683474505885438500,2.0604384765625,0.02321287989616394,0.018936822190880775,-0.001832595793530345
1683474505895426000,2.070426025390625,0.02321287989616394,0.02015855349600315,-0.0024434609804302454
1683474505905458000,2.0804580078125,0.022602014243602753,0.021380282938480377,-0.001832595793530345
1683474505915414800,2.090414794921875,0.02321287989616394,0.021380282938480377,-0.0012217304902151227
1683474505925447000,2.100447021484375,0.02321287989616394,0.021991148591041565,-0.0024434609804302454
1683474505935526100,2.110526123046875,0.022602014243602753,0.02076941914856434,-0.0012217304902151227
1683474505945461000,2.1204609375,0.021991148591041565,0.021380282938480377,-0.001832595793530345
1683474505955423500,2.130423583984375,0.02321287989616394,0.02076941914856434,-0.001832595793530345
1683474505965456400,2.140456298828125,0.021991148591041565,0.02076941914856434,-0.003054326167330146
1683474505975923200,2.150923095703125,0.022602014243602753,0.02076941914856434,-0.0024434609804302454
1683474505985445400,2.1604453125,0.02321287989616394,0.02015855349600315,-0.0024434609804302454
1683474505995432700,2.1704326171875,0.02321287989616394,0.021380282938480377,-0.0006108652451075613
1683474506005464800,2.18046484375,0.021991148591041565,0.021380282938480377,-0.001832595793530345
1683474506015574500,2.190574462890625,0.02321287989616394,0.021380282938480377,-0.001832595793530345
1683474506025453800,2.200453857421875,0.024434609338641167,0.02076941914856434,-0.0012217304902151227
1683474506035441700,2.210441650390625,0.022602014243602753,0.02015855349600315,-0.0006108652451075613
1683474506045442800,2.22044287109375,0.022602014243602753,0.021991148591041565,-0.001832595793530345
1683474506055613400,2.230613525390625,0.02321287989616394,0.02076941914856434,-0.0024434609804302454
1683474506065462500,2.240462646484375,0.022602014243602753,0.02076941914856434,-0.001832595793530345
1683474506075419400,2.25041943359375,0.024434609338641167,0.02076941914856434,-0.001832595793530345
1683474506085451800,2.26045166015625,0.022602014243602753,0.02076941914856434,-0.0012217304902151227
1683474506095438800,2.27043896484375,0.02321287989616394,0.02076941914856434,-0.0012217304902151227
1683474506105440500,2.2804404296875,0.02321287989616394,0.02015855349600315,-0.003054326167330146
1683474506115428000,2.290427978515625,0.022602014243602753,0.02015855349600315,-0.0024434609804302454
1683474506125459700,2.300459716796875,0.02321287989616394,0.02015855349600315,-0.0012217304902151227
1683474506135417000,2.3104169921875,0.022602014243602753,0.02015855349600315,-0.0024434609804302454
1683474506145449000,2.320448974609375,0.022602014243602753,0.021380282938480377,-0.0012217304902151227
1683474506155436300,2.330436279296875,0.022602014243602753,0.02076941914856434,-0.0024434609804302454
1683474506165438000,2.34043798828125,0.022602014243602753,0.02015855349600315,-0.001832595793530345
1683474506175586800,2.3505869140625,0.02321287989616394,0.021380282938480377,-0.001832595793530345
1683474506185457700,2.360457763671875,0.022602014243602753,0.02076941914856434,-0.001832595793530345
1683474506195414500,2.37041455078125,0.02321287989616394,0.02015855349600315,-0.001832595793530345
1683474506205447000,2.380447021484375,0.022602014243602753,0.021380282938480377,-0.0024434609804302454
1683474506215434000,2.39043408203125,0.02321287989616394,0.02076941914856434,-0.001832595793530345
1683474506225435600,2.400435546875,0.021991148591041565,0.02076941914856434,-0.0006108652451075613
1683474506235423200,2.41042333984375,0.02382374368607998,0.021380282938480377,-0.001832595793530345
1683474506245455000,2.420455078125,0.022602014243602753,0.02076941914856434,-0.0024434609804302454
1683474506256090400,2.43109033203125,0.02321287989616394,0.021380282938480377,-0.0024434609804302454
1683474506275431700,2.450431640625,0.022602014243602753,0.02076941914856434,-0.0012217304902151227
1683474506285463800,2.4604638671875,0.022602014243602753,0.02015855349600315,-0.003054326167330146
1683474506295420700,2.470420654296875,0.022602014243602753,0.02076941914856434,-0.003054326167330146
1683474506305452800,2.480452880859375,0.02321287989616394,0.021380282938480377,-0.001832595793530345
1683474506315440000,2.490440185546875,0.022602014243602753,0.02076941914856434,-0.001832595793530345
1683474506325441800,2.50044189453125,0.02382374368607998,0.02076941914856434,-0.0024434609804302454
1683474506335429400,2.510429443359375,0.02321287989616394,0.021380282938480377,-0.0012217304902151227
1683474506345461000,2.5204609375,0.02321287989616394,0.02076941914856434,-0.0024434609804302454
1683474506355418000,2.530418212890625,0.02321287989616394,0.02015855349600315,-0.0024434609804302454
1683474506365450200,2.5404501953125,0.022602014243602753,0.02015855349600315,-0.001832595793530345
1683474506376045800,2.5510458984375,0.02321287989616394,0.02076941914856434,-0.0024434609804302454
1683474506395426800,2.5704267578125,0.022602014243602753,0.02076941914856434,-0.0024434609804302454
1683474506405458400,2.58045849609375,0.02321287989616394,0.02076941914856434,-0.0012217304902151227
1683474506415598800,2.590598876953125,0.02321287989616394,0.02076941914856434,-0.001832595793530345
1683474506425447700,2.60044775390625,0.02321287989616394,0.021380282938480377,-0.0024434609804302454
1683474506435435300,2.610435302734375,0.02382374368607998,0.02076941914856434,-0.0012217304902151227
1683474506445436700,2.620436767578125,0.021991148591041565,0.019547687843441963,-0.001832595793530345
1683474506455424500,2.630424560546875,0.022602014243602753,0.02015855349600315,-0.0012217304902151227
1683474506465456000,2.6404560546875,0.022602014243602753,0.02076941914856434,-0.0012217304902151227
1683474506475413200,2.650413330078125,0.02321287989616394,0.02076941914856434,-0.0024434609804302454
1683474506485445400,2.6604453125,0.022602014243602753,0.02076941914856434,-0.0024434609804302454
1683474506495433000,2.670432861328125,0.02321287989616394,0.021380282938480377,-0.0024434609804302454
1683474506505464800,2.68046484375,0.022602014243602753,0.02076941914856434,-0.0012217304902151227
1683474506515422000,2.690421875,0.022602014243602753,0.02015855349600315,-0.0012217304902151227
1683474506525453600,2.70045361328125,0.022602014243602753,0.02076941914856434,-0.0024434609804302454
1683474506535441400,2.71044140625,0.022602014243602753,0.02015855349600315,-0.0012217304902151227
1683474506545442800,2.72044287109375,0.021991148591041565,0.02076941914856434,-0.0012217304902151227
1683474506555430400,2.730430419921875,0.02321287989616394,0.021991148591041565,-0.0024434609804302454
1683474506565462500,2.740462646484375,0.022602014243602753,0.021380282938480377,-0.001832595793530345
1683474506575794000,2.7507939453125,0.022602014243602753,0.02015855349600315,-0.001832595793530345
1683474506585451800,2.76045166015625,0.022602014243602753,0.02076941914856434,-0.0024434609804302454
1683474506595439000,2.770439208984375,0.02321287989616394,0.02076941914856434,-0.0024434609804302454
1683474506605440300,2.780440185546875,0.02382374368607998,0.02015855349600315,-0.0024434609804302454
1683474506615875800,2.790875732421875,0.02382374368607998,0.021380282938480377,-0.001832595793530345
1683474506625460200,2.800460205078125,0.022602014243602753,0.02015855349600315,-0.0024434609804302454
1683474506635416800,2.810416748046875,0.022602014243602753,0.02076941914856434,-0.001832595793530345
1683474506645449000,2.820448974609375,0.02321287989616394,0.02076941914856434,-0.001832595793530345
1683474506655436300,2.830436279296875,0.022602014243602753,0.02015855349600315,-0.0012217304902151227
1683474506665438000,2.84043798828125,0.022602014243602753,0.019547687843441963,-0.001832595793530345
1683474506675425500,2.850425537109375,0.022602014243602753,0.021380282938480377,-0.0024434609804302454
1683474506685457700,2.860457763671875,0.02321287989616394,0.02076941914856434,-0.0024434609804302454
1683474506695414500,2.87041455078125,0.022602014243602753,0.02015855349600315,-0.001832595793530345
1683474506705447000,2.880447021484375,0.02321287989616394,0.02015855349600315,-0.0024434609804302454
1683474506715434200,2.890434326171875,0.02321287989616394,0.022602014243602753,-0.001832595793530345
1683474506725435600,2.900435546875,0.02382374368607998,0.02076941914856434,-0.001832595793530345
1683474506735125000,2.910125,0.022602014243602753,0.021380282938480377,-0.003054326167330146
1683474506745455400,2.920455322265625,0.021991148591041565,0.021380282938480377,-0.001832595793530345
1683474506755442700,2.930442626953125,0.021380282938480377,0.02015855349600315,-0.001832595793530345
1683474506765444400,2.9404443359375,0.022602014243602753,0.02015855349600315,-0.001832595793530345
1683474506775431700,2.950431640625,0.02321287989616394,0.02076941914856434,-0.001832595793530345
1683474506785463800,2.9604638671875,0.022602014243602753,0.02015855349600315,-0.0024434609804302454
1683474506795421000,2.9704208984375,0.022602014243602753,0.02076941914856434,-0.0024434609804302454
1683474506805452800,2.980452880859375,0.022602014243602753,0.021380282938480377,-0.001832595793530345
1683474506815009300,2.99000927734375,0.022602014243602753,0.02015855349600315,-0.001832595793530345
1683474506825472300,3.00047216796875,0.02321287989616394,0.02076941914856434,-0.0024434609804302454
1683474506835429400,3.010429443359375,0.02321287989616394,0.02015855349600315,-0.0024434609804302454
1683474506845461200,3.020461181640625,0.022602014243602753,0.02076941914856434,-0.001832595793530345
1683474506855418400,3.03041845703125,0.02382374368607998,0.02015855349600315,-0.0024434609804302454
1683474506865462500,3.040462646484375,0.021991148591041565,0.02076941914856434,-0.0024434609804302454
1683474506875437000,3.05043701171875,0.022602014243602753,0.02076941914856434,-0.0024434609804302454
1683474506885433000,3.06043310546875,0.02321287989616394,0.021991148591041565,-0.001832595793530345
1683474506895426000,3.070426025390625,0.022602014243602753,0.021380282938480377,-0.001832595793530345
1683474506905452500,3.08045263671875,0.022602014243602753,0.02015855349600315,-0.0024434609804302454
1683474506915415000,3.0904150390625,0.022602014243602753,0.021380282938480377,-0.001832595793530345
1683474506925441500,3.100441650390625,0.021991148591041565,0.021380282938480377,-0.001832595793530345
1683474506935434500,3.1104345703125,0.02321287989616394,0.021380282938480377,-0.001832595793530345
1683474506945430800,3.1204306640625,0.021991148591041565,0.02076941914856434,-0.0006108652451075613
1683474506955423500,3.130423583984375,0.02321287989616394,0.019547687843441963,-0.0024434609804302454
1683474506965456100,3.1404560546875,0.022602014243602753,0.02076941914856434,-0.0024434609804302454
1683474506975413200,3.150413330078125,0.022602014243602753,0.02076941914856434,-0.003054326167330146
1683474506985445400,3.1604453125,0.022602014243602753,0.02015855349600315,-0.001832595793530345
1683474506995433000,3.170432861328125,0.021991148591041565,0.02076941914856434,-0.001832595793530345
1683474507005464800,3.18046484375,0.021991148591041565,0.019547687843441963,-0.001832595793530345
1683474507015544000,3.1905439453125,0.022602014243602753,0.021991148591041565,-0.001832595793530345
1683474507025453800,3.200453857421875,0.02321287989616394,0.02076941914856434,-0.0024434609804302454
1683474507035441400,3.21044140625,0.022602014243602753,0.02015855349600315,-0.0024434609804302454
1683474507045442800,3.22044287109375,0.022602014243602753,0.019547687843441963,-0.001832595793530345
1683474507055430700,3.2304306640625,0.022602014243602753,0.02015855349600315,-0.001832595793530345
1683474507065462500,3.240462646484375,0.022602014243602753,0.02015855349600315,-0.0024434609804302454
1683474507075419400,3.25041943359375,0.02321287989616394,0.021380282938480377,-0.0024434609804302454
1683474507085451500,3.260451416015625,0.022602014243602753,0.02015855349600315,-0.0012217304902151227
1683474507095438800,3.27043896484375,0.02321287989616394,0.02015855349600315,-0.001832595793530345
1683474507105440500,3.2804404296875,0.022602014243602753,0.02076941914856434,-0.003054326167330146
1683474507115428000,3.290427978515625,0.022602014243602753,0.02076941914856434,-0.001832595793530345
1683474507125460000,3.3004599609375,0.022602014243602753,0.02076941914856434,-0.0024434609804302454
1683474507135056600,3.310056640625,0.02321287989616394,0.02076941914856434,-0.001832595793530345
1683474507145449000,3.320448974609375,0.021991148591041565,0.021380282938480377,-0.0024434609804302454
1683474507155436500,3.3304365234375,0.02321287989616394,0.02076941914856434,-0.0012217304902151227
1683474507165438000,3.34043798828125,0.021991148591041565,0.021380282938480377,-0.0012217304902151227
1683474507176064300,3.351064208984375,0.022602014243602753,0.02076941914856434,-0.001832595793530345
1683474507195414500,3.37041455078125,0.021991148591041565,0.02076941914856434,-0.001832595793530345
1683474507205446700,3.38044677734375,0.022602014243602753,0.021380282938480377,-0.0024434609804302454
1683474507215857000,3.39085693359375,0.02321287989616394,0.02015855349600315,-0.0024434609804302454
1683474507225466000,3.400466064453125,0.02321287989616394,0.021380282938480377,-0.001832595793530345
1683474507235423000,3.410423095703125,0.021991148591041565,0.02076941914856434,-0.001832595793530345
1683474507245455000,3.420455078125,0.022602014243602753,0.021380282938480377,-0.0012217304902151227
1683474507255442400,3.4304423828125,0.02321287989616394,0.02076941914856434,-0.0012217304902151227
1683474507265444000,3.440444091796875,0.02321287989616394,0.02076941914856434,-0.003054326167330146
1683474507275431700,3.450431640625,0.02321287989616394,0.02076941914856434,-0.001832595793530345
1683474507285463800,3.4604638671875,0.022602014243602753,0.021380282938480377,-0.0012217304902151227
1683474507295664600,3.47066455078125,0.022602014243602753,0.02076941914856434,-0.0024434609804302454
1683474507305452500,3.48045263671875,0.02321287989616394,0.02015855349600315,-0.003054326167330146
1683474507315440400,3.4904404296875,0.02321287989616394,0.021380282938480377,-0.001832595793530345
1683474507325441800,3.50044189453125,0.022602014243602753,0.02076941914856434,-0.001832595793530345
1683474507335429400,3.510429443359375,0.022602014243602753,0.02076941914856434,-0.0012217304902151227
1683474507345461200,3.520461181640625,0.02321287989616394,0.02015855349600315,-0.0024434609804302454
1683474507355418000,3.530418212890625,0.02321287989616394,0.02076941914856434,-0.003054326167330146
1683474507365450200,3.5404501953125,0.022602014243602753,0.02076941914856434,-0.001832595793530345
1683474507375437600,3.5504375,0.02321287989616394,0.02076941914856434,-0.001832595793530345
1683474507385439500,3.560439453125,0.02382374368607998,0.02076941914856434,-0.001832595793530345
1683474507395426800,3.5704267578125,0.022602014243602753,0.02015855349600315,-0.001832595793530345
1683474507405459000,3.580458984375,0.022602014243602753,0.02076941914856434,-0.0012217304902151227
1683474507415046000,3.5900458984375,0.02321287989616394,0.02015855349600315,-0.001832595793530345
1683474507425447700,3.60044775390625,0.022602014243602753,0.022602014243602753,-0.001832595793530345
1683474507435435300,3.610435302734375,0.022602014243602753,0.02076941914856434,-0.001832595793530345
1683474507445437000,3.62043701171875,0.02321287989616394,0.02076941914856434,-0.0006108652451075613
1683474507455424300,3.63042431640625,0.02382374368607998,0.02076941914856434,-0.001832595793530345
1683474507465456400,3.640456298828125,0.02321287989616394,0.02076941914856434,-0.0024434609804302454
1683474507475413200,3.650413330078125,0.021380282938480377,0.02076941914856434,-0.001832595793530345
1683474507485445600,3.660445556640625,0.022602014243602753,0.02076941914856434,-0.0024434609804302454
1683474507495433000,3.670432861328125,0.022602014243602753,0.021380282938480377,-0.001832595793530345
1683474507505465000,3.680465087890625,0.022602014243602753,0.02076941914856434,-0.001832595793530345
1683474507515422000,3.690421875,0.02382374368607998,0.02076941914856434,-0.0024434609804302454
1683474507525453800,3.700453857421875,0.022602014243602753,0.019547687843441963,-0.0012217304902151227
1683474507535977000,3.71097705078125,0.022602014243602753,0.021380282938480377,-0.0006108652451075613
1683474507555430400,3.730430419921875,0.02321287989616394,0.021380282938480377,-0.001832595793530345
1683474507565462500,3.740462646484375,0.022602014243602753,0.02076941914856434,-0.0024434609804302454
1683474507575419400,3.75041943359375,0.022602014243602753,0.02076941914856434,-0.001832595793530345
1683474507585451800,3.76045166015625,0.022602014243602753,0.021380282938480377,-0.001832595793530345
1683474507595438800,3.77043896484375,0.022602014243602753,0.021380282938480377,-0.0024434609804302454
1683474507605440300,3.780440185546875,0.02382374368607998,0.021380282938480377,-0.0012217304902151227
1683474507615004000,3.79000390625,0.022602014243602753,0.02076941914856434,-0.0012217304902151227
1683474507625459700,3.800459716796875,0.02321287989616394,0.021380282938480377,-0.0024434609804302454
1683474507635416800,3.810416748046875,0.02321287989616394,0.021380282938480377,-0.0012217304902151227
1683474507645449000,3.820448974609375,0.02321287989616394,0.02076941914856434,-0.0024434609804302454
1683474507655436500,3.8304365234375,0.02321287989616394,0.021380282938480377,-0.001832595793530345
1683474507665438200,3.840438232421875,0.022602014243602753,0.02076941914856434,-0.003054326167330146
1683474507675425500,3.850425537109375,0.022602014243602753,0.02015855349600315,-0.0024434609804302454
1683474507685457700,3.860457763671875,0.02321287989616394,0.02015855349600315,-0.0012217304902151227
1683474507695414500,3.87041455078125,0.022602014243602753,0.021380282938480377,-0.0024434609804302454
1683474507705446700,3.88044677734375,0.022602014243602753,0.02015855349600315,-0.0012217304902151227
1683474507715434200,3.890434326171875,0.022602014243602753,0.021380282938480377,-0.001832595793530345
1683474507725436000,3.900435791015625,0.021991148591041565,0.019547687843441963,-0.0012217304902151227
1683474507735637000,3.910636962890625,0.02321287989616394,0.021380282938480377,-0.0024434609804302454
1683474507745455000,3.920455078125,0.022602014243602753,0.02015855349600315,-0.001832595793530345
1683474507755443000,3.93044287109375,0.02382374368607998,0.019547687843441963,-0.0024434609804302454
1683474507765444000,3.940444091796875,0.022602014243602753,0.021991148591041565,-0.001832595793530345
1683474507775431700,3.950431640625,0.02321287989616394,0.021991148591041565,-0.0024434609804302454
1683474507785463800,3.9604638671875,0.022602014243602753,0.02076941914856434,-0.001832595793530345
1683474507795421000,3.9704208984375,0.021380282938480377,0.02076941914856434,-0.001832595793530345
1683474507805452800,3.980452880859375,0.021380282938480377,0.022602014243602753,-0.0006108652451075613
1683474507815291400,3.99029150390625,0.022602014243602753,0.02015855349600315,-0.0024434609804302454
1683474507825472500,4.000472412109375,0.021991148591041565,0.021380282938480377,-0.001832595793530345
1683474507835429400,4.010429443359375,0.02321287989616394,0.02076941914856434,-0.0024434609804302454
1683474507845461200,4.020461181640625,0.022602014243602753,0.02076941914856434,-0.0024434609804302454
1683474507855479300,4.030479248046875,0.024434609338641167,0.021380282938480377,-0.001832595793530345
1683474507865448700,4.04044873046875,0.021991148591041565,0.02015855349600315,-0.001832595793530345
1683474507875437000,4.05043701171875,0.022602014243602753,0.022602014243602753,-0.0006108652451075613
1683474507885438000,4.06043798828125,0.022602014243602753,0.02076941914856434,-0.0006108652451075613
1683474507895426000,4.070426025390625,0.02321287989616394,0.02015855349600315,-0.003054326167330146
1683474507905458200,4.080458251953125,0.02321287989616394,0.02076941914856434,-0.001832595793530345
1683474507915414800,4.090414794921875,0.021991148591041565,0.021380282938480377,-0.0012217304902151227
1683474507925447000,4.100447021484375,0.02382374368607998,0.02015855349600315,-0.001832595793530345
1683474507935434500,4.1104345703125,0.021991148591041565,0.02076941914856434,-0.001832595793530345
1683474507945474800,4.120474853515625,0.022602014243602753,0.021380282938480377,-0.001832595793530345
1683474507955423700,4.130423828125,0.02321287989616394,0.02076941914856434,-0.0006108652451075613
1683474507965450800,4.14045068359375,0.022602014243602753,0.02015855349600315,-0.001832595793530345
1683474507975032600,4.150032470703125,0.02321287989616394,0.02076941914856434,-0.0006108652451075613
1683474507985439700,4.160439697265625,0.022602014243602753,0.021380282938480377,-0.003054326167330146
1683474507995433000,4.170432861328125,0.022602014243602753,0.02015855349600315,-0.0024434609804302454
1683474508005459500,4.18045947265625,0.022602014243602753,0.021380282938480377,-0.0012217304902151227
1683474508015574500,4.190574462890625,0.02321287989616394,0.02076941914856434,-0.001832595793530345
1683474508025448400,4.200448486328125,0.022602014243602753,0.02076941914856434,-0.0024434609804302454
1683474508035441400,4.21044140625,0.022602014243602753,0.02076941914856434,-0.001832595793530345
1683474508045442800,4.22044287109375,0.022602014243602753,0.02076941914856434,-0.001832595793530345
1683474508055430400,4.230430419921875,0.02321287989616394,0.02076941914856434,-0.001832595793530345
1683474508065462500,4.240462646484375,0.02321287989616394,0.021991148591041565,-0.0024434609804302454
1683474508075419600,4.250419677734375,0.021991148591041565,0.021380282938480377,-0.001832595793530345
1683474508085451500,4.260451416015625,0.022602014243602753,0.02015855349600315,-0.003054326167330146
1683474508095713500,4.270713623046875,0.022602014243602753,0.02076941914856434,-0.0024434609804302454
1683474508105440500,4.2804404296875,0.02382374368607998,0.02076941914856434,-0.001832595793530345
1683474508115428000,4.290427978515625,0.022602014243602753,0.02015855349600315,-0.0012217304902151227
1683474508125460000,4.3004599609375,0.02321287989616394,0.02076941914856434,-0.0024434609804302454
1683474508135003400,4.31000341796875,0.022602014243602753,0.021991148591041565,-0.0024434609804302454
1683474508145449000,4.320448974609375,0.022602014243602753,0.019547687843441963,-0.001832595793530345
1683474508155436300,4.330436279296875,0.02321287989616394,0.02076941914856434,-0.0024434609804302454
1683474508165438000,4.34043798828125,0.02321287989616394,0.021380282938480377,-0.0024434609804302454
1683474508175425500,4.350425537109375,0.02321287989616394,0.02076941914856434,-0.003054326167330146
1683474508185457700,4.360457763671875,0.02321287989616394,0.02076941914856434,-0.0024434609804302454
1683474508195414500,4.37041455078125,0.022602014243602753,0.02015855349600315,-0.001832595793530345
1683474508205446700,4.38044677734375,0.022602014243602753,0.02076941914856434,-0.0012217304902151227
1683474508215001300,4.39000146484375,0.022602014243602753,0.02076941914856434,-0.001832595793530345
1683474508225465900,4.4004658203125,0.02321287989616394,0.02015855349600315,-0.0024434609804302454
1683474508235423000,4.410423095703125,0.021991148591041565,0.021991148591041565,-0.0024434609804302454
1683474508245454800,4.420454833984375,0.02321287989616394,0.021380282938480377,-0.0006108652451075613
1683474508255534300,4.430534423828125,0.022602014243602753,0.021380282938480377,-0.0006108652451075613
1683474508265444000,4.440444091796875,0.022602014243602753,0.02076941914856434,-0.0024434609804302454
1683474508275431700,4.450431640625,0.021991148591041565,0.021380282938480377,-0.0012217304902151227
1683474508285463600,4.460463623046875,0.02321287989616394,0.02015855349600315,-0.001832595793530345
1683474508295420700,4.470420654296875,0.022602014243602753,0.02076941914856434,-0.0024434609804302454
1683474508305452500,4.48045263671875,0.021991148591041565,0.02076941914856434,-0.0024434609804302454
1683474508315440000,4.490440185546875,0.021991148591041565,0.02076941914856434,-0.0024434609804302454
1683474508325441500,4.500441650390625,0.02321287989616394,0.021380282938480377,-0.001832595793530345
1683474508335429400,4.510429443359375,0.02321287989616394,0.02015855349600315,-0.001832595793530345
1683474508345461200,4.520461181640625,0.02321287989616394,0.02015855349600315,-0.001832595793530345
1683474508355418000,4.530418212890625,0.022602014243602753,0.021991148591041565,-0.001832595793530345
1683474508365450200,4.5404501953125,0.022602014243602753,0.02015855349600315,-0.0012217304902151227
1683474508375437600,4.5504375,0.02321287989616394,0.02015855349600315,-0.001832595793530345
1683474508385439200,4.560439208984375,0.02321287989616394,0.021380282938480377,-0.0006108652451075613
1683474508395426800,4.5704267578125,0.022602014243602753,0.02076941914856434,-0.001832595793530345
1683474508405459000,4.580458984375,0.022602014243602753,0.018936822190880775,-0.0012217304902151227
1683474508415415800,4.590415771484375,0.021991148591041565,0.021380282938480377,-0.0024434609804302454
1683474508425448000,4.600447998046875,0.02321287989616394,0.021380282938480377,-0.001832595793530345
1683474508435435500,4.610435546875,0.022602014243602753,0.021380282938480377,-0.0024434609804302454
1683474508445437000,4.62043701171875,0.02321287989616394,0.02076941914856434,-0.0024434609804302454
1683474508455424300,4.63042431640625,0.022602014243602753,0.02015855349600315,-0.0006108652451075613
1683474508465456000,4.6404560546875,0.021380282938480377,0.02076941914856434,-0.0024434609804302454
1683474508475413200,4.650413330078125,0.021991148591041565,0.02015855349600315,-0.001832595793530345
1683474508485445400,4.6604453125,0.022602014243602753,0.021380282938480377,-0.0006108652451075613
1683474508495433000,4.670432861328125,0.022602014243602753,0.021380282938480377,-0.0024434609804302454
1683474508505464800,4.68046484375,0.022602014243602753,0.021991148591041565,-0.0024434609804302454
1683474508515422000,4.690421875,0.02382374368607998,0.021380282938480377,-0.0024434609804302454
1683474508525453800,4.700453857421875,0.02321287989616394,0.021380282938480377,-0.001832595793530345
1683474508535441400,4.71044140625,0.022602014243602753,0.021380282938480377,-0.001832595793530345
1683474508545443000,4.720443115234375,0.02382374368607998,0.02076941914856434,-0.0024434609804302454
1683474508555430400,4.730430419921875,0.02321287989616394,0.019547687843441963,-0.0012217304902151227
1683474508565462300,4.740462158203125,0.02321287989616394,0.02076941914856434,-0.0024434609804302454
1683474508575419400,4.75041943359375,0.02321287989616394,0.02015855349600315,-0.003054326167330146
1683474508585451800,4.76045166015625,0.022602014243602753,0.019547687843441963,-0.001832595793530345
1683474508595439000,4.770439208984375,0.022602014243602753,0.021991148591041565,-0.0012217304902151227
1683474508605440500,4.7804404296875,0.021991148591041565,0.02076941914856434,-0.001832595793530345
1683474508615428000,4.790427978515625,0.022602014243602753,0.02076941914856434,-0.0012217304902151227
1683474508625460000,4.8004599609375,0.021991148591041565,0.021380282938480377,-0.001832595793530345
1683474508635416800,4.810416748046875,0.022602014243602753,0.02076941914856434,-0.0012217304902151227
1683474508645449000,4.820448974609375,0.02321287989616394,0.02015855349600315,-0.0024434609804302454
1683474508655436300,4.830436279296875,0.02321287989616394,0.021380282938480377,-0.001832595793530345
1683474508665438200,4.840438232421875,0.02321287989616394,0.022602014243602753,-0.0006108652451075613
1683474508675425500,4.850425537109375,0.021991148591041565,0.021991148591041565,-0.001832595793530345
1683474508685457700,4.860457763671875,0.022602014243602753,0.021380282938480377,-0.0012217304902151227
1683474508695414500,4.87041455078125,0.02321287989616394,0.02015855349600315,-0.0024434609804302454
1683474508705447000,4.880447021484375,0.02382374368607998,0.019547687843441963,-0.0012217304902151227
1683474508715434200,4.890434326171875,0.02321287989616394,0.02076941914856434,-0.001832595793530345
1683474508725436000,4.900435791015625,0.021991148591041565,0.021380282938480377,-0.003054326167330146
1683474508735423200,4.91042333984375,0.022602014243602753,0.02015855349600315,-0.001832595793530345
1683474508745455000,4.920455078125,0.022602014243602753,0.02076941914856434,-0.0024434609804302454
1683474508755442700,4.930442626953125,0.021991148591041565,0.019547687843441963,-0.00366519158706069
1683474508765444400,4.9404443359375,0.022602014243602753,0.02015855349600315,-0.003054326167330146
1683474508775431700,4.950431640625,0.021991148591041565,0.021991148591041565,-0.0012217304902151227
1683474508785463600,4.960463623046875,0.022602014243602753,0.02015855349600315,-0.003054326167330146
1683474508795421000,4.9704208984375,0.02382374368607998,0.021380282938480377,-0.0024434609804302454
1683474508805452500,4.98045263671875,0.02321287989616394,0.02076941914856434,-0.0024434609804302454
1683474508815440400,4.9904404296875,0.02382374368607998,0.02076941914856434,-0.001832595793530345
1683474508825441800,5.00044189453125,0.021991148591041565,0.021380282938480377,-0.0012217304902151227
1683474508835429400,5.010429443359375,0.022602014243602753,0.02076941914856434,-0.0024434609804302454
1683474508845461500,5.02046142578125,0.02321287989616394,0.021380282938480377,-0.0012217304902151227
1683474508855418400,5.03041845703125,0.02321287989616394,0.02076941914856434,-0.0024434609804302454
1683474508865448700,5.04044873046875,0.02382374368607998,0.019547687843441963,-0.001832595793530345
1683474508875437000,5.05043701171875,0.022602014243602753,0.02076941914856434,-0.0012217304902151227
1683474508885438500,5.0604384765625,0.02321287989616394,0.02015855349600315,-0.001832595793530345
1683474508895426000,5.070426025390625,0.022602014243602753,0.021991148591041565,-0.0012217304902151227
1683474508905458000,5.0804580078125,0.024434609338641167,0.02076941914856434,-0.0012217304902151227
1683474508915414800,5.090414794921875,0.02321287989616394,0.02015855349600315,-0.0024434609804302454
1683474508925447000,5.100447021484375,0.022602014243602753,0.02076941914856434,-0.0024434609804302454
1683474508935434500,5.1104345703125,0.02321287989616394,0.02015855349600315,-0.0012217304902151227
1683474508945436000,5.120435791015625,0.02321287989616394,0.02015855349600315,-0.001832595793530345
1683474508955423700,5.130423828125,0.02382374368607998,0.021380282938480377,-0.0012217304902151227
1683474508965456400,5.140456298828125,0.022602014243602753,0.02015855349600315,-0.001832595793530345
1683474508975413200,5.150413330078125,0.022602014243602753,0.021991148591041565,-0.0012217304902151227
1683474508985445400,5.1604453125,0.02321287989616394,0.021380282938480377,-0.0024434609804302454
1683474508995433000,5.170432861328125,0.022602014243602753,0.021380282938480377,-0.0024434609804302454
1683474509005464800,5.18046484375,0.02321287989616394,0.02076941914856434,-0.0012217304902151227
1683474509015422000,5.190421875,0.022602014243602753,0.021380282938480377,-0.001832595793530345
1683474509025467600,5.200467529296875,0.022602014243602753,0.02076941914856434,0
1683474509035441400,5.21044140625,0.022602014243602753,0.021380282938480377,-0.003054326167330146
1683474509045437400,5.2204375,0.022602014243602753,0.02076941914856434,-0.0024434609804302454
1683474509055705000,5.230705078125,0.022602014243602753,0.021380282938480377,-0.001832595793530345
1683474509065457200,5.24045703125,0.02321287989616394,0.021380282938480377,-0.0012217304902151227
1683474509075419400,5.25041943359375,0.021991148591041565,0.02076941914856434,-0.001832595793530345
1683474509085446100,5.260446044921875,0.02321287989616394,0.02076941914856434,-0.001832595793530345
1683474509095561000,5.27056103515625,0.021991148591041565,0.02076941914856434,-0.0006108652451075613
1683474509105435100,5.28043505859375,0.021991148591041565,0.02076941914856434,-0.0024434609804302454
1683474509115428000,5.290427978515625,0.022602014243602753,0.021380282938480377,-0.0012217304902151227
1683474509125459700,5.300459716796875,0.02321287989616394,0.02076941914856434,-0.0012217304902151227
1683474509135417000,5.3104169921875,0.021991148591041565,0.021991148591041565,-0.0024434609804302454
1683474509145448700,5.32044873046875,0.022602014243602753,0.02015855349600315,-0.001832595793530345
1683474509155436300,5.330436279296875,0.02321287989616394,0.021380282938480377,-0.001832595793530345
1683474509165438000,5.34043798828125,0.02321287989616394,0.02015855349600315,-0.0024434609804302454
1683474509174992400,5.349992431640625,0.02321287989616394,0.021380282938480377,-0.001832595793530345
1683474509185457700,5.360457763671875,0.022602014243602753,0.021380282938480377,-0.0012217304902151227
1683474509195414500,5.37041455078125,0.02321287989616394,0.021380282938480377,-0.0024434609804302454
1683474509205446400,5.3804462890625,0.022602014243602753,0.021991148591041565,-0.001832595793530345
1683474509215576800,5.390576904296875,0.02321287989616394,0.021380282938480377,-0.00366519158706069
1683474509225466000,5.400466064453125,0.022602014243602753,0.02076941914856434,-0.0006108652451075613
1683474509235423000,5.410423095703125,0.022602014243602753,0.02015855349600315,-0.0024434609804302454
1683474509245454800,5.420454833984375,0.021991148591041565,0.021380282938480377,-0.003054326167330146
1683474509255634700,5.430634765625,0.022602014243602753,0.02015855349600315,-0.0024434609804302454
1683474509265444000,5.440444091796875,0.02321287989616394,0.02076941914856434,-0.0024434609804302454
1683474509275431700,5.450431640625,0.02321287989616394,0.021380282938480377,-0.001832595793530345
1683474509285463800,5.4604638671875,0.02321287989616394,0.021380282938480377,-0.001832595793530345
1683474509295420700,5.470420654296875,0.022602014243602753,0.02076941914856434,-0.0012217304902151227
1683474509305452800,5.480452880859375,0.022602014243602753,0.021380282938480377,-0.0012217304902151227
1683474509315440000,5.490440185546875,0.022602014243602753,0.02076941914856434,-0.001832595793530345
1683474509325441800,5.50044189453125,0.02321287989616394,0.02076941914856434,-0.001832595793530345
1683474509335429400,5.510429443359375,0.021991148591041565,0.02076941914856434,-0.001832595793530345
1683474509345461200,5.520461181640625,0.021991148591041565,0.02076941914856434,-0.0012217304902151227
1683474509355418400,5.53041845703125,0.02382374368607998,0.019547687843441963,-0.003054326167330146
1683474509365450200,5.5404501953125,0.02321287989616394,0.02076941914856434,-0.001832595793530345
1683474509375437800,5.550437744140625,0.021991148591041565,0.021380282938480377,-0.0024434609804302454
1683474509385439200,5.560439208984375,0.022602014243602753,0.02076941914856434,-0.001832595793530345
1683474509395426800,5.5704267578125,0.022602014243602753,0.02015855349600315,-0.003054326167330146
1683474509405458700,5.580458740234375,0.022602014243602753,0.02076941914856434,-0.0012217304902151227
1683474509415017200,5.590017333984375,0.02382374368607998,0.019547687843441963,-0.0024434609804302454
1683474509425447400,5.600447509765625,0.022602014243602753,0.02076941914856434,-0.001832595793530345
1683474509435435500,5.610435546875,0.022602014243602753,0.02076941914856434,-0.001832595793530345
1683474509445437000,5.62043701171875,0.02321287989616394,0.02015855349600315,-0.003054326167330146
1683474509455424500,5.630424560546875,0.02321287989616394,0.02015855349600315,-0.001832595793530345
1683474509465456400,5.640456298828125,0.022602014243602753,0.021380282938480377,-0.001832595793530345
1683474509475413200,5.650413330078125,0.02321287989616394,0.021380282938480377,-0.001832595793530345
1683474509485445400,5.6604453125,0.02321287989616394,0.021380282938480377,-0.001832595793530345
1683474509495433000,5.670432861328125,0.02321287989616394,0.021380282938480377,-0.0012217304902151227
1683474509505464800,5.68046484375,0.022602014243602753,0.021380282938480377,-0.001832595793530345
1683474509515422000,5.690421875,0.022602014243602753,0.021380282938480377,-0.0024434609804302454
1683474509525453800,5.700453857421875,0.022602014243602753,0.021380282938480377,-0.001832595793530345
1683474509535441400,5.71044140625,0.02382374368607998,0.021380282938480377,-0.0006108652451075613
1683474509545442800,5.72044287109375,0.022602014243602753,0.02076941914856434,-0.0006108652451075613
1683474509555430400,5.730430419921875,0.02382374368607998,0.02015855349600315,-0.0024434609804302454
1683474509565462300,5.740462158203125,0.022602014243602753,0.021991148591041565,-0.0012217304902151227
1683474509575419400,5.75041943359375,0.02321287989616394,0.02076941914856434,-0.0024434609804302454
1683474509585451500,5.760451416015625,0.02321287989616394,0.02076941914856434,-0.001832595793530345
1683474509595438800,5.77043896484375,0.022602014243602753,0.021380282938480377,-0.0024434609804302454
1683474509605440300,5.780440185546875,0.022602014243602753,0.02076941914856434,-0.0024434609804302454
1683474509616053800,5.7910537109375,0.02321287989616394,0.02076941914856434,-0.00366519158706069
1683474509635416800,5.810416748046875,0.022602014243602753,0.02076941914856434,-0.0012217304902151227
1683474509645448700,5.82044873046875,0.022602014243602753,0.02015855349600315,-0.0024434609804302454
1683474509655619800,5.830619873046875,0.02321287989616394,0.02015855349600315,-0.001832595793530345
1683474509665438200,5.840438232421875,0.02321287989616394,0.02076941914856434,-0.001832595793530345
1683474509675425500,5.850425537109375,0.02321287989616394,0.02076941914856434,-0.003054326167330146
1683474509685458000,5.8604580078125,0.02321287989616394,0.02015855349600315,-0.0024434609804302454
1683474509695414500,5.87041455078125,0.022602014243602753,0.02076941914856434,-0.00366519158706069
1683474509705447000,5.880447021484375,0.022602014243602753,0.021380282938480377,-0.0024434609804302454
1683474509715434200,5.890434326171875,0.02321287989616394,0.021380282938480377,-0.0024434609804302454
1683474509725435600,5.900435546875,0.02321287989616394,0.02015855349600315,-0.003054326167330146
1683474509735423500,5.910423583984375,0.022602014243602753,0.021380282938480377,-0.003054326167330146
1683474509745455400,5.920455322265625,0.021991148591041565,0.02015855349600315,-0.001832595793530345
1683474509755442700,5.930442626953125,0.02382374368607998,0.02076941914856434,-0.003054326167330146
1683474509765444400,5.9404443359375,0.022602014243602753,0.021991148591041565,-0.001832595793530345
1683474509775431700,5.950431640625,0.021991148591041565,0.02015855349600315,-0.001832595793530345
1683474509785464000,5.960464111328125,0.022602014243602753,0.021991148591041565,-0.0024434609804302454
1683474509795420700,5.970420654296875,0.02321287989616394,0.021380282938480377,-0.0012217304902151227
1683474509805452800,5.980452880859375,0.022602014243602753,0.02076941914856434,-0.001832595793530345
1683474509815440400,5.9904404296875,0.022602014243602753,0.02076941914856434,-0.001832595793530345
1683474509825441800,6.00044189453125,0.022602014243602753,0.02076941914856434,-0.001832595793530345
1683474509835429400,6.010429443359375,0.022602014243602753,0.02076941914856434,-0.001832595793530345
1683474509845461200,6.020461181640625,0.02321287989616394,0.02076941914856434,-0.0024434609804302454
1683474509855418400,6.03041845703125,0.021991148591041565,0.02076941914856434,-0.001832595793530345
1683474509865448700,6.04044873046875,0.021991148591041565,0.021380282938480377,-0.001832595793530345
1683474509875437000,6.05043701171875,0.02321287989616394,0.021380282938480377,-0.003054326167330146
1683474509885438500,6.0604384765625,0.02321287989616394,0.02015855349600315,-0.0024434609804302454
1683474509895426000,6.070426025390625,0.02321287989616394,0.02015855349600315,-0.001832595793530345
1683474509905458200,6.080458251953125,0.02321287989616394,0.021380282938480377,-0.0006108652451075613
1683474509915415000,6.0904150390625,0.022602014243602753,0.02015855349600315,-0.0012217304902151227
1683474509925447000,6.100447021484375,0.02321287989616394,0.02076941914856434,-0.003054326167330146
1683474509935434500,6.1104345703125,0.021991148591041565,0.021380282938480377,-0.003054326167330146
1683474509945461000,6.1204609375,0.02382374368607998,0.02015855349600315,-0.003054326167330146
1683474509955423700,6.130423828125,0.02321287989616394,0.02076941914856434,-0.0024434609804302454
1683474509965456400,6.140456298828125,0.021991148591041565,0.021991148591041565,-0.0012217304902151227
1683474509975413200,6.150413330078125,0.022602014243602753,0.021380282938480377,-0.001832595793530345
1683474509985445400,6.1604453125,0.02321287989616394,0.02015855349600315,-0.0024434609804302454
1683474509995433000,6.170432861328125,0.022602014243602753,0.021380282938480377,-0.0012217304902151227
1683474510005464800,6.18046484375,0.021991148591041565,0.02015855349600315,-0.0012217304902151227
1683474510015452400,6.190452392578125,0.02321287989616394,0.02076941914856434,-0.001832595793530345
1683474510025453800,6.200453857421875,0.021991148591041565,0.021991148591041565,-0.0006108652451075613
1683474510035441400,6.21044140625,0.02321287989616394,0.021380282938480377,-0.001832595793530345
1683474510045443000,6.220443115234375,0.021991148591041565,0.02015855349600315,-0.001832595793530345
1683474510055839700,6.23083984375,0.02321287989616394,0.02076941914856434,-0.001832595793530345
1683474510065462500,6.240462646484375,0.021991148591041565,0.02015855349600315,-0.0024434609804302454
1683474510075419400,6.25041943359375,0.022602014243602753,0.021380282938480377,-0.001832595793530345
1683474510085451500,6.260451416015625,0.02321287989616394,0.02076941914856434,-0.0024434609804302454
1683474510095887400,6.270887451171875,0.02321287989616394,0.02015855349600315,-0.001832595793530345
1683474510105485000,6.280485107421875,0.024434609338641167,0.02076941914856434,-0.001832595793530345
1683474510115428000,6.290427978515625,0.022602014243602753,0.02076941914856434,-0.001832595793530345
1683474510125454800,6.300454833984375,0.022602014243602753,0.02076941914856434,-0.0012217304902151227
1683474510135478000,6.31047802734375,0.021991148591041565,0.02076941914856434,-0.0024434609804302454
1683474510145443600,6.320443603515625,0.022602014243602753,0.021991148591041565,-0.0024434609804302454
1683474510155436300,6.330436279296875,0.022602014243602753,0.02076941914856434,-0.0024434609804302454
1683474510165432600,6.3404326171875,0.021991148591041565,0.02076941914856434,-0.001832595793530345
1683474510175425500,6.350425537109375,0.021991148591041565,0.021380282938480377,-0.0012217304902151227
1683474510185452000,6.3604521484375,0.022602014243602753,0.02015855349600315,-0.0024434609804302454
1683474510195414500,6.37041455078125,0.02382374368607998,0.02015855349600315,-0.001832595793530345
1683474510205446700,6.38044677734375,0.022602014243602753,0.02076941914856434,-0.0024434609804302454
1683474510215017200,6.390017333984375,0.02321287989616394,0.021380282938480377,-0.0012217304902151227
1683474510225466000,6.400466064453125,0.022602014243602753,0.02076941914856434,-0.0024434609804302454
1683474510235423200,6.41042333984375,0.02321287989616394,0.02076941914856434,-0.0024434609804302454
1683474510245455000,6.420455078125,0.022602014243602753,0.02076941914856434,-0.001832595793530345
1683474510255442700,6.430442626953125,0.02321287989616394,0.021380282938480377,-0.001832595793530345
1683474510265444400,6.4404443359375,0.021991148591041565,0.02076941914856434,-0.0024434609804302454
1683474510275431400,6.450431396484375,0.02382374368607998,0.019547687843441963,-0.0012217304902151227
1683474510285463600,6.460463623046875,0.021380282938480377,0.02076941914856434,-0.003054326167330146
1683474510295420700,6.470420654296875,0.021991148591041565,0.021380282938480377,-0.0024434609804302454
1683474510305452500,6.48045263671875,0.022602014243602753,0.02076941914856434,-0.0024434609804302454
1683474510315440000,6.490440185546875,0.022602014243602753,0.02076941914856434,-0.0012217304902151227
1683474510325441500,6.500441650390625,0.021991148591041565,0.021380282938480377,-0.0012217304902151227
1683474510335429400,6.510429443359375,0.022602014243602753,0.02076941914856434,-0.0012217304902151227
1683474510345461200,6.520461181640625,0.022602014243602753,0.02076941914856434,-0.001832595793530345
1683474510355418400,6.53041845703125,0.022602014243602753,0.02076941914856434,-0.0024434609804302454
1683474510365450200,6.5404501953125,0.02382374368607998,0.02015855349600315,-0.0012217304902151227
1683474510375437800,6.550437744140625,0.022602014243602753,0.02076941914856434,-0.001832595793530345
1683474510385439500,6.560439453125,0.02321287989616394,0.02076941914856434,-0.0024434609804302454
1683474510395426800,6.5704267578125,0.02321287989616394,0.02076941914856434,-0.0012217304902151227
1683474510405458700,6.580458740234375,0.022602014243602753,0.021991148591041565,-0.0012217304902151227
1683474510416022000,6.59102197265625,0.022602014243602753,0.02076941914856434,-0.001832595793530345
1683474510435435300,6.610435302734375,0.02321287989616394,0.02076941914856434,-0.001832595793530345
1683474510445437000,6.62043701171875,0.02321287989616394,0.02076941914856434,-0.001832595793530345
1683474510455424300,6.63042431640625,0.02321287989616394,0.021380282938480377,-0.001832595793530345
1683474510465456600,6.64045654296875,0.022602014243602753,0.02076941914856434,-0.001832595793530345
1683474510475413200,6.650413330078125,0.022602014243602753,0.02076941914856434,-0.0024434609804302454
1683474510485445400,6.6604453125,0.02321287989616394,0.02015855349600315,-0.001832595793530345
1683474510495011300,6.67001123046875,0.022602014243602753,0.021380282938480377,-0.0012217304902151227
1683474510505464800,6.68046484375,0.02321287989616394,0.02076941914856434,-0.0024434609804302454
1683474510515422000,6.690421875,0.02321287989616394,0.02015855349600315,-0.003054326167330146
1683474510525453800,6.700453857421875,0.022602014243602753,0.02076941914856434,-0.001832595793530345
1683474510535441400,6.71044140625,0.02382374368607998,0.02076941914856434,-0.001832595793530345
1683474510545442800,6.72044287109375,0.021991148591041565,0.02076941914856434,-0.001832595793530345
1683474510555430700,6.7304306640625,0.02321287989616394,0.02015855349600315,-0.003054326167330146
1683474510565462500,6.740462646484375,0.022602014243602753,0.02076941914856434,-0.001832595793530345
1683474510575419400,6.75041943359375,0.02321287989616394,0.021380282938480377,-0.001832595793530345
1683474510585451800,6.76045166015625,0.02321287989616394,0.02015855349600315,-0.0024434609804302454
1683474510595438800,6.77043896484375,0.02321287989616394,0.02076941914856434,-0.0006108652451075613
1683474510605440300,6.780440185546875,0.02382374368607998,0.02015855349600315,-0.0012217304902151227
1683474510615093000,6.790093017578125,0.022602014243602753,0.02015855349600315,-0.003054326167330146
1683474510625460000,6.8004599609375,0.022602014243602753,0.02076941914856434,-0.0012217304902151227
1683474510635417000,6.8104169921875,0.02382374368607998,0.021380282938480377,-0.0012217304902151227
1683474510645449000,6.820448974609375,0.022602014243602753,0.021380282938480377,-0.0012217304902151227
1683474510655436500,6.8304365234375,0.02321287989616394,0.019547687843441963,-0.001832595793530345
1683474510665438000,6.84043798828125,0.021991148591041565,0.021991148591041565,-0.0024434609804302454
1683474510675425500,6.850425537109375,0.02321287989616394,0.02015855349600315,-0.001832595793530345
1683474510685457700,6.860457763671875,0.022602014243602753,0.021380282938480377,-0.0012217304902151227
1683474510695414800,6.870414794921875,0.02382374368607998,0.02076941914856434,-0.0024434609804302454
1683474510705447000,6.880447021484375,0.02321287989616394,0.02015855349600315,-0.0024434609804302454
1683474510715434200,6.890434326171875,0.022602014243602753,0.021380282938480377,-0.0024434609804302454
1683474510725435600,6.900435546875,0.022602014243602753,0.02076941914856434,-0.0024434609804302454
1683474510735423200,6.91042333984375,0.022602014243602753,0.02076941914856434,-0.0012217304902151227
1683474510745455000,6.920455078125,0.022602014243602753,0.02015855349600315,-0.001832595793530345
1683474510755442700,6.930442626953125,0.022602014243602753,0.02076941914856434,-0.003054326167330146
1683474510765444400,6.9404443359375,0.02321287989616394,0.02015855349600315,-0.001832595793530345
1683474510775431700,6.950431640625,0.022602014243602753,0.021380282938480377,-0.0024434609804302454
1683474510785463800,6.9604638671875,0.02321287989616394,0.021380282938480377,-0.0006108652451075613
1683474510795421000,6.9704208984375,0.022602014243602753,0.02076941914856434,-0.001832595793530345
1683474510805452800,6.980452880859375,0.022602014243602753,0.02076941914856434,-0.001832595793530345
1683474510815440400,6.9904404296875,0.02321287989616394,0.02076941914856434,-0.003054326167330146
1683474510825442000,7.000442138671875,0.02321287989616394,0.021380282938480377,-0.0024434609804302454
1683474510835429400,7.010429443359375,0.021991148591041565,0.02076941914856434,-0.001832595793530345
1683474510845461500,7.02046142578125,0.021991148591041565,0.021380282938480377,-0.001832595793530345
1683474510855418400,7.03041845703125,0.02321287989616394,0.021380282938480377,-0.001832595793530345
1683474510865449000,7.040448974609375,0.022602014243602753,0.02076941914856434,-0.0012217304902151227
1683474510875437000,7.05043701171875,0.02382374368607998,0.02076941914856434,-0.0012217304902151227
1683474510885438500,7.0604384765625,0.02321287989616394,0.02015855349600315,-0.0006108652451075613
1683474510895426000,7.070426025390625,0.021991148591041565,0.02015855349600315,-0.001832595793530345
1683474510905458000,7.0804580078125,0.022602014243602753,0.021380282938480377,-0.001832595793530345
1683474510915414800,7.090414794921875,0.02321287989616394,0.02015855349600315,-0.001832595793530345
1683474510925447000,7.100447021484375,0.02321287989616394,0.02015855349600315,-0.001832595793530345
1683474510935434500,7.1104345703125,0.022602014243602753,0.02076941914856434,-0.003054326167330146
1683474510945436400,7.1204365234375,0.022602014243602753,0.019547687843441963,-0.003054326167330146
1683474510955423700,7.130423828125,0.02321287989616394,0.02076941914856434,-0.003054326167330146
1683474510965456400,7.140456298828125,0.022602014243602753,0.02015855349600315,-0.003054326167330146
1683474510975413200,7.150413330078125,0.02382374368607998,0.02076941914856434,-0.0024434609804302454
1683474510985445400,7.1604453125,0.022602014243602753,0.021380282938480377,-0.0024434609804302454
1683474510995432700,7.1704326171875,0.02321287989616394,0.019547687843441963,-0.0024434609804302454
1683474511005464800,7.18046484375,0.02382374368607998,0.021380282938480377,-0.001832595793530345
1683474511015635500,7.190635498046875,0.021991148591041565,0.02015855349600315,-0.001832595793530345
1683474511025454000,7.2004541015625,0.02321287989616394,0.021380282938480377,-0.001832595793530345
1683474511035441400,7.21044140625,0.02382374368607998,0.02076941914856434,-0.0024434609804302454
1683474511045442800,7.22044287109375,0.02321287989616394,0.021380282938480377,-0.0006108652451075613
1683474511055831600,7.23083154296875,0.022602014243602753,0.02076941914856434,-0.0024434609804302454
1683474511065462500,7.240462646484375,0.02321287989616394,0.021380282938480377,-0.001832595793530345
1683474511075419400,7.25041943359375,0.022602014243602753,0.02076941914856434,-0.001832595793530345
1683474511085451500,7.260451416015625,0.024434609338641167,0.02076941914856434,-0.001832595793530345
1683474511095438800,7.27043896484375,0.022602014243602753,0.02076941914856434,-0.001832595793530345
1683474511105440500,7.2804404296875,0.022602014243602753,0.021380282938480377,-0.001832595793530345
1683474511115428000,7.290427978515625,0.021991148591041565,0.02076941914856434,-0.001832595793530345
1683474511125460200,7.300460205078125,0.02321287989616394,0.02076941914856434,-0.001832595793530345
1683474511135417000,7.3104169921875,0.022602014243602753,0.021380282938480377,-0.0024434609804302454
1683474511145449000,7.320448974609375,0.022602014243602753,0.02076941914856434,-0.0024434609804302454
1683474511155436500,7.3304365234375,0.02321287989616394,0.021380282938480377,-0.0012217304902151227
1683474511165438000,7.34043798828125,0.02321287989616394,0.02076941914856434,-0.0024434609804302454
1683474511175700200,7.3507001953125,0.021991148591041565,0.021380282938480377,-0.001832595793530345
1683474511185471500,7.360471435546875,0.02321287989616394,0.019547687843441963,-0.003054326167330146
1683474511195414500,7.37041455078125,0.022602014243602753,0.021380282938480377,-0.001832595793530345
1683474511205441300,7.380441162109375,0.02321287989616394,0.02076941914856434,-0.001832595793530345
1683474511215837200,7.390837158203125,0.02321287989616394,0.021380282938480377,-0.001832595793530345
1683474511225460700,7.400460693359375,0.022602014243602753,0.02015855349600315,-0.001832595793530345
1683474511235423200,7.41042333984375,0.02321287989616394,0.02015855349600315,-0.0024434609804302454
1683474511245449700,7.42044970703125,0.022602014243602753,0.02076941914856434,-0.0024434609804302454
1683474511255442700,7.430442626953125,0.022602014243602753,0.02015855349600315,-0.0024434609804302454
1683474511265438500,7.4404384765625,0.02321287989616394,0.021380282938480377,-0.001832595793530345
1683474511275431700,7.450431640625,0.02321287989616394,0.02076941914856434,-0.003054326167330146
1683474511285463800,7.4604638671875,0.024434609338641167,0.02015855349600315,-0.0006108652451075613
1683474511295542500,7.47054248046875,0.022602014243602753,0.02076941914856434,-0.0024434609804302454
1683474511305452500,7.48045263671875,0.022602014243602753,0.02015855349600315,-0.001832595793530345
1683474511315440400,7.4904404296875,0.022602014243602753,0.02076941914856434,-0.001832595793530345
1683474511325441800,7.50044189453125,0.022602014243602753,0.02015855349600315,-0.003054326167330146
1683474511335429400,7.510429443359375,0.022602014243602753,0.021380282938480377,-0.001832595793530345
1683474511345461200,7.520461181640625,0.021991148591041565,0.02076941914856434,-0.0024434609804302454
1683474511355381000,7.530381103515625,0.02321287989616394,0.02076941914856434,-0.0024434609804302454
1683474511365412900,7.540412841796875,0.02382374368607998,0.02076941914856434,-0.0024434609804302454
1683474511375522600,7.5505224609375,0.022602014243602753,0.02076941914856434,-0.001832595793530345
1683474511385402000,7.560402099609375,0.022602014243602753,0.021380282938480377,-0.003054326167330146
1683474511395389200,7.57038916015625,0.022602014243602753,0.02076941914856434,-0.001832595793530345
1683474511405421600,7.580421630859375,0.022602014243602753,0.02015855349600315,-0.0012217304902151227
1683474511415531000,7.590531005859375,0.02321287989616394,0.02076941914856434,-0.003054326167330146
1683474511425410800,7.600410888671875,0.02321287989616394,0.021380282938480377,-0.0024434609804302454
1683474511435398100,7.610398193359375,0.02321287989616394,0.021380282938480377,-0.003054326167330146
1683474511445399600,7.620399658203125,0.02321287989616394,0.02076941914856434,0
1683474511455387000,7.630386962890625,0.02321287989616394,0.02015855349600315,-0.001832595793530345
1683474511465419000,7.6404189453125,0.02382374368607998,0.02015855349600315,-0.0024434609804302454
1683474511475376000,7.650376220703125,0.02321287989616394,0.02076941914856434,-0.001832595793530345
1683474511485408300,7.660408203125,0.022602014243602753,0.02076941914856434,-0.0024434609804302454
1683474511495395600,7.6703955078125,0.021991148591041565,0.021380282938480377,-0.001832595793530345
1683474511505427700,7.680427734375,0.02321287989616394,0.019547687843441963,-0.0024434609804302454
1683474511515384600,7.690384521484375,0.021991148591041565,0.02076941914856434,-0.0012217304902151227
1683474511525416400,7.70041650390625,0.022602014243602753,0.02076941914856434,-0.001832595793530345
1683474511535587000,7.710587158203125,0.022602014243602753,0.02015855349600315,-0.001832595793530345
1683474511545405400,7.720405517578125,0.02321287989616394,0.021991148591041565,-0.001832595793530345
1683474511555393300,7.730393310546875,0.022602014243602753,0.02076941914856434,-0.0012217304902151227
1683474511565425000,7.7404248046875,0.02321287989616394,0.02076941914856434,-0.0012217304902151227
1683474511575382300,7.75038232421875,0.022602014243602753,0.021991148591041565,-0.001832595793530345
1683474511585414100,7.7604140625,0.021991148591041565,0.02076941914856434,-0.001832595793530345
1683474511595401500,7.7704013671875,0.021991148591041565,0.02015855349600315,-0.001832595793530345
1683474511605403400,7.7804033203125,0.022602014243602753,0.02015855349600315,-0.00366519158706069
1683474511615111700,7.790111572265625,0.022602014243602753,0.02076941914856434,-0.001832595793530345
1683474511625422600,7.800422607421875,0.022602014243602753,0.02076941914856434,-0.0024434609804302454
1683474511635379700,7.810379638671875,0.021991148591041565,0.02015855349600315,-0.001832595793530345
1683474511645411600,7.82041162109375,0.02321287989616394,0.021380282938480377,-0.0024434609804302454
1683474511655399400,7.8303994140625,0.021991148591041565,0.02015855349600315,-0.0012217304902151227
1683474511665400800,7.84040087890625,0.022602014243602753,0.021380282938480377,-0.0024434609804302454
1683474511675388400,7.850388427734375,0.022602014243602753,0.02076941914856434,-0.003054326167330146
1683474511685420300,7.860420166015625,0.022602014243602753,0.021380282938480377,-0.0024434609804302454
1683474511695109400,7.870109375,0.02321287989616394,0.021380282938480377,-0.0024434609804302454
1683474511705409300,7.8804091796875,0.022602014243602753,0.021380282938480377,-0.0012217304902151227
1683474511715396600,7.890396728515625,0.022602014243602753,0.02076941914856434,-0.003054326167330146
1683474511725398300,7.900398193359375,0.022602014243602753,0.02076941914856434,-0.0012217304902151227
1683474511735385900,7.9103857421875,0.022602014243602753,0.019547687843441963,-0.001832595793530345
1683474511745417700,7.920417724609375,0.021991148591041565,0.02076941914856434,-0.0024434609804302454
1683474511755405600,7.930405517578125,0.02321287989616394,0.02076941914856434,-0.0024434609804302454
1683474511765406700,7.94040673828125,0.02382374368607998,0.02076941914856434,-0.0024434609804302454
1683474511775608300,7.9506083984375,0.02321287989616394,0.019547687843441963,-0.0024434609804302454
1683474511785426400,7.960426513671875,0.022602014243602753,0.021380282938480377,-0.001832595793530345
1683474511795383300,7.97038330078125,0.022602014243602753,0.02015855349600315,-0.0024434609804302454
1683474511805415400,7.98041552734375,0.02321287989616394,0.02076941914856434,-0.0024434609804302454
1683474511815403000,7.990403076171875,0.022602014243602753,0.021380282938480377,-0.001832595793530345
1683474511825404700,8.00040478515625,0.02321287989616394,0.02015855349600315,-0.001832595793530345
1683474511835392300,8.010392333984376,0.02321287989616394,0.021380282938480377,-0.001832595793530345
1683474511845424000,8.020424072265625,0.022602014243602753,0.02015855349600315,-0.001832595793530345
1683474511855381000,8.030381103515625,0.02321287989616394,0.02076941914856434,-0.0024434609804302454
1683474511865411300,8.040411376953125,0.022602014243602753,0.02015855349600315,-0.0024434609804302454
1683474511875399700,8.050399658203125,0.02382374368607998,0.02015855349600315,-0.0024434609804302454
1683474511885400800,8.06040087890625,0.022602014243602753,0.02015855349600315,-0.0024434609804302454
1683474511894990300,8.069990234375,0.022602014243602753,0.02076941914856434,-0.001832595793530345
1683474511905420800,8.0804208984375,0.022602014243602753,0.02076941914856434,-0.0024434609804302454
1683474511915377700,8.090377685546875,0.02321287989616394,0.02076941914856434,-0.0024434609804302454
1683474511925409500,8.100409423828125,0.022602014243602753,0.02076941914856434,-0.0006108652451075613
1683474511935397000,8.110397216796875,0.022602014243602753,0.02076941914856434,-0.001832595793530345
1683474511945423600,8.120423583984374,0.02321287989616394,0.021380282938480377,-0.001832595793530345
1683474511955386000,8.13038623046875,0.022602014243602753,0.02076941914856434,-0.0012217304902151227
1683474511965419000,8.1404189453125,0.02321287989616394,0.02076941914856434,-0.001832595793530345
1683474511975467300,8.15046728515625,0.022602014243602753,0.02076941914856434,-0.001832595793530345
1683474511985408000,8.160407958984376,0.022602014243602753,0.021380282938480377,-0.001832595793530345
1683474511995395300,8.170395263671875,0.02321287989616394,0.02015855349600315,-0.0024434609804302454
1683474512005427500,8.180427490234376,0.02321287989616394,0.021380282938480377,-0.0024434609804302454
1683474512015384600,8.190384521484376,0.022602014243602753,0.019547687843441963,-0.001832595793530345
1683474512025416400,8.20041650390625,0.022602014243602753,0.02015855349600315,-0.001832595793530345
1683474512035404000,8.210404052734376,0.02321287989616394,0.02076941914856434,-0.001832595793530345
1683474512045405400,8.220405517578126,0.02321287989616394,0.02076941914856434,-0.0024434609804302454
1683474512055393300,8.230393310546875,0.022602014243602753,0.02076941914856434,-0.0024434609804302454
1683474512065425200,8.240425048828126,0.02382374368607998,0.02015855349600315,-0.0024434609804302454
1683474512075382300,8.25038232421875,0.021991148591041565,0.02076941914856434,-0.001832595793530345
1683474512085414400,8.260414306640625,0.02321287989616394,0.02015855349600315,-0.0024434609804302454
1683474512095401700,8.270401611328126,0.022602014243602753,0.02076941914856434,-0.0024434609804302454
1683474512105403000,8.28040283203125,0.022602014243602753,0.021380282938480377,-0.0012217304902151227
1683474512115390700,8.290390625,0.022602014243602753,0.02015855349600315,-0.001832595793530345
1683474512125422600,8.300422607421876,0.02321287989616394,0.02076941914856434,-0.0024434609804302454
1683474512135976200,8.31097607421875,0.02321287989616394,0.021991148591041565,-0.001832595793530345
1683474512155399400,8.3303994140625,0.02321287989616394,0.02076941914856434,-0.003054326167330146
1683474512165400600,8.340400634765626,0.022602014243602753,0.02015855349600315,-0.0024434609804302454
1683474512175388400,8.350388427734375,0.022602014243602753,0.021380282938480377,-0.001832595793530345
1683474512185420300,8.360420166015626,0.021991148591041565,0.02076941914856434,-0.001832595793530345
1683474512195377200,8.370377197265626,0.02321287989616394,0.02076941914856434,-0.001832595793530345
1683474512205409500,8.380409423828125,0.02321287989616394,0.021380282938480377,-0.003054326167330146
1683474512215064300,8.390064208984375,0.02321287989616394,0.02076941914856434,-0.001832595793530345
1683474512225428700,8.4004287109375,0.022602014243602753,0.021380282938480377,-0.001832595793530345
1683474512235385900,8.4103857421875,0.022602014243602753,0.021991148591041565,-0.0024434609804302454
1683474512245417500,8.42041748046875,0.02321287989616394,0.02076941914856434,-0.001832595793530345
1683474512255405600,8.430405517578125,0.02321287989616394,0.021991148591041565,-0.0012217304902151227
1683474512265420500,8.440420654296876,0.02321287989616394,0.02076941914856434,-0.0024434609804302454
1683474512275394300,8.450394287109376,0.02321287989616394,0.02076941914856434,-0.001832595793530345
1683474512285421000,8.460421142578125,0.021991148591041565,0.02076941914856434,-0.001832595793530345
1683474512295883500,8.470883544921875,0.02321287989616394,0.02076941914856434,-0.003054326167330146
1683474512305410000,8.48041015625,0.022602014243602753,0.021380282938480377,-0.0024434609804302454
1683474512315402800,8.49040283203125,0.02321287989616394,0.02015855349600315,-0.003054326167330146
1683474512325399000,8.50039892578125,0.022602014243602753,0.02076941914856434,-0.0024434609804302454
1683474512335392000,8.51039208984375,0.022602014243602753,0.021991148591041565,-0.001832595793530345
1683474512345418800,8.520418701171875,0.022602014243602753,0.021380282938480377,-0.0024434609804302454
1683474512355381000,8.530381103515625,0.02321287989616394,0.021380282938480377,-0.001832595793530345
1683474512365412900,8.540412841796876,0.022602014243602753,0.02076941914856434,-0.003054326167330146
1683474512375400400,8.550400390625,0.022602014243602753,0.02076941914856434,-0.0012217304902151227
1683474512385401900,8.56040185546875,0.02321287989616394,0.02015855349600315,-0.001832595793530345
1683474512395389400,8.570389404296876,0.022602014243602753,0.021380282938480377,-0.001832595793530345
1683474512405421600,8.580421630859375,0.022602014243602753,0.02015855349600315,-0.0024434609804302454
1683474512415378400,8.59037841796875,0.022602014243602753,0.02076941914856434,-0.0012217304902151227
1683474512425410600,8.60041064453125,0.02321287989616394,0.02076941914856434,-0.001832595793530345
1683474512435398100,8.610398193359375,0.021991148591041565,0.02076941914856434,-0.0024434609804302454
1683474512445399300,8.6203994140625,0.02321287989616394,0.021380282938480377,-0.0024434609804302454
1683474512455387000,8.630386962890626,0.02321287989616394,0.02015855349600315,-0.0024434609804302454
1683474512465418800,8.640418701171875,0.02321287989616394,0.02076941914856434,-0.001832595793530345
1683474512475375900,8.6503759765625,0.021991148591041565,0.021380282938480377,-0.0012217304902151227
1683474512485408000,8.660407958984376,0.022602014243602753,0.02076941914856434,-0.0012217304902151227
1683474512495395600,8.6703955078125,0.022602014243602753,0.02076941914856434,-0.001832595793530345
1683474512505427700,8.680427734375,0.022602014243602753,0.02015855349600315,-0.001832595793530345
1683474512515384600,8.690384521484376,0.022602014243602753,0.02076941914856434,-0.003054326167330146
1683474512525416700,8.700416748046875,0.022602014243602753,0.02076941914856434,-0.001832595793530345
1683474512535404000,8.710404052734376,0.02321287989616394,0.02015855349600315,-0.0012217304902151227
1683474512545405400,8.720405517578126,0.022602014243602753,0.02015855349600315,-0.003054326167330146
1683474512555393300,8.730393310546875,0.02321287989616394,0.02076941914856434,-0.0024434609804302454
1683474512565425200,8.740425048828126,0.02321287989616394,0.021380282938480377,-0.0024434609804302454
1683474512575443200,8.750443115234376,0.02382374368607998,0.02076941914856434,-0.003054326167330146
1683474512585414100,8.7604140625,0.022602014243602753,0.02076941914856434,-0.003054326167330146
1683474512595401700,8.770401611328126,0.021380282938480377,0.02076941914856434,-0.003054326167330146
1683474512605403000,8.78040283203125,0.022602014243602753,0.02076941914856434,-0.0024434609804302454
1683474512615222800,8.790222900390624,0.022602014243602753,0.021380282938480377,-0.0024434609804302454
1683474512625422600,8.800422607421876,0.02321287989616394,0.02015855349600315,-0.003054326167330146
1683474512635379700,8.810379638671876,0.02321287989616394,0.02015855349600315,-0.0012217304902151227
1683474512645411600,8.82041162109375,0.02321287989616394,0.02015855349600315,-0.0024434609804302454
1683474512655399200,8.830399169921876,0.02321287989616394,0.02076941914856434,-0.0024434609804302454
1683474512665400600,8.840400634765626,0.02321287989616394,0.02076941914856434,-0.0024434609804302454
1683474512675388400,8.850388427734375,0.021991148591041565,0.02076941914856434,-0.001832595793530345
1683474512685420500,8.860420654296876,0.02382374368607998,0.021380282938480377,-0.001832595793530345
1683474512695560200,8.870560302734376,0.022602014243602753,0.02076941914856434,-0.0012217304902151227
1683474512705409300,8.8804091796875,0.02321287989616394,0.02076941914856434,-0.001832595793530345
1683474512715396900,8.89039697265625,0.022602014243602753,0.02015855349600315,-0.003054326167330146
1683474512725398300,8.900398193359376,0.022602014243602753,0.02076941914856434,-0.0024434609804302454
1683474512735508000,8.910508056640625,0.021991148591041565,0.02015855349600315,-0.001832595793530345
1683474512745418000,8.92041796875,0.02321287989616394,0.02076941914856434,-0.0024434609804302454
1683474512755405600,8.930405517578125,0.022602014243602753,0.02076941914856434,0
1683474512765406700,8.94040673828125,0.022602014243602753,0.02015855349600315,-0.0024434609804302454
1683474512775394600,8.95039453125,0.022602014243602753,0.021380282938480377,-0.0012217304902151227
1683474512785426400,8.960426513671875,0.02321287989616394,0.02015855349600315,-0.001832595793530345
1683474512795383600,8.970383544921875,0.021991148591041565,0.02015855349600315,-0.0024434609804302454
1683474512805415700,8.980415771484376,0.02382374368607998,0.02015855349600315,-0.001832595793530345
1683474512815403000,8.990403076171875,0.022602014243602753,0.02076941914856434,-0.001832595793530345
1683474512825404700,9.00040478515625,0.021991148591041565,0.021380282938480377,-0.001832595793530345
1683474512835392000,9.01039208984375,0.02321287989616394,0.02076941914856434,-0.001832595793530345
1683474512845424000,9.020424072265625,0.022602014243602753,0.02076941914856434,-0.0024434609804302454
1683474512855381200,9.03038134765625,0.022602014243602753,0.02076941914856434,-0.0024434609804302454
1683474512865411300,9.040411376953125,0.022602014243602753,0.021380282938480377,-0.0012217304902151227
1683474512875399700,9.050399658203125,0.021991148591041565,0.02015855349600315,-0.001832595793530345
1683474512885401000,9.060401123046875,0.02382374368607998,0.02076941914856434,-0.0012217304902151227
1683474512895510800,9.0705107421875,0.022602014243602753,0.02015855349600315,-0.0024434609804302454
1683474512905420500,9.080420654296875,0.022602014243602753,0.021380282938480377,-0.0024434609804302454
1683474512915377700,9.090377685546875,0.021991148591041565,0.02076941914856434,-0.003054326167330146
1683474512925409800,9.100409912109376,0.021991148591041565,0.021380282938480377,-0.001832595793530345
1683474512935397000,9.110397216796875,0.02321287989616394,0.021380282938480377,-0.003054326167330146
1683474512945398800,9.120398681640625,0.022602014243602753,0.02076941914856434,-0.0024434609804302454
1683474512955386400,9.130386474609375,0.02321287989616394,0.02015855349600315,-0.0012217304902151227
1683474512965418800,9.140418701171875,0.021991148591041565,0.02015855349600315,-0.0024434609804302454
1683474512975376100,9.150376220703125,0.021380282938480377,0.02076941914856434,-0.001832595793530345
1683474512985408300,9.160408203125,0.022602014243602753,0.02076941914856434,-0.0024434609804302454
1683474512995395600,9.1703955078125,0.022602014243602753,0.021380282938480377,-0.001832595793530345
1683474513005427700,9.180427734375,0.021991148591041565,0.02015855349600315,-0.001832595793530345
1683474513015384600,9.190384521484376,0.02321287989616394,0.02076941914856434,-0.001832595793530345
1683474513025416700,9.200416748046875,0.021991148591041565,0.021380282938480377,-0.003054326167330146
1683474513035404000,9.210404052734376,0.022602014243602753,0.02015855349600315,-0.0012217304902151227
1683474513045405400,9.220405517578126,0.022602014243602753,0.019547687843441963,-0.0024434609804302454
1683474513055393300,9.230393310546875,0.02321287989616394,0.02015855349600315,-0.00366519158706069
1683474513065425200,9.240425048828126,0.02382374368607998,0.02015855349600315,-0.001832595793530345
1683474513075382300,9.25038232421875,0.02321287989616394,0.019547687843441963,-0.001832595793530345
1683474513085414100,9.2604140625,0.02321287989616394,0.021380282938480377,-0.0024434609804302454
1683474513095432000,9.270431884765625,0.02321287989616394,0.02076941914856434,-0.00366519158706069
1683474513105403400,9.2804033203125,0.021991148591041565,0.019547687843441963,-0.0024434609804302454
1683474513115390700,9.290390625,0.02321287989616394,0.02076941914856434,-0.0024434609804302454
1683474513125422600,9.300422607421876,0.022602014243602753,0.02076941914856434,-0.0024434609804302454
1683474513135004700,9.310004638671876,0.022602014243602753,0.02076941914856434,-0.003054326167330146
1683474513145411600,9.32041162109375,0.02382374368607998,0.02015855349600315,-0.0024434609804302454
1683474513155399200,9.330399169921876,0.02321287989616394,0.02076941914856434,-0.001832595793530345
1683474513165400800,9.34040087890625,0.02321287989616394,0.02076941914856434,-0.0024434609804302454
1683474513175571200,9.3505712890625,0.022602014243602753,0.02015855349600315,-0.0024434609804302454
1683474513185420300,9.360420166015626,0.02321287989616394,0.02076941914856434,-0.001832595793530345
1683474513195377200,9.370377197265626,0.02321287989616394,0.02015855349600315,-0.0024434609804302454
1683474513205409300,9.3804091796875,0.022602014243602753,0.02015855349600315,-0.001832595793530345
1683474513215396600,9.390396728515626,0.022602014243602753,0.021380282938480377,-0.0012217304902151227
1683474513225398300,9.400398193359376,0.021380282938480377,0.021380282938480377,-0.0024434609804302454
1683474513235385900,9.4103857421875,0.02321287989616394,0.019547687843441963,-0.0024434609804302454
1683474513245417500,9.42041748046875,0.022602014243602753,0.02015855349600315,-0.0024434609804302454
1683474513255405300,9.4304052734375,0.022602014243602753,0.02076941914856434,-0.001832595793530345
1683474513265406700,9.44040673828125,0.022602014243602753,0.02015855349600315,-0.00366519158706069
1683474513275394300,9.450394287109376,0.02321287989616394,0.02015855349600315,-0.0012217304902151227
1683474513285426400,9.460426513671875,0.02382374368607998,0.02076941914856434,-0.003054326167330146
1683474513295383300,9.47038330078125,0.022602014243602753,0.02015855349600315,-0.0024434609804302454
1683474513305415400,9.48041552734375,0.02321287989616394,0.021380282938480377,-0.0024434609804302454
1683474513315403000,9.490403076171875,0.02382374368607998,0.02015855349600315,-0.003054326167330146
1683474513325404400,9.500404296875,0.02321287989616394,0.021380282938480377,-0.001832595793530345
1683474513335392000,9.51039208984375,0.02382374368607998,0.02015855349600315,-0.0024434609804302454
1683474513345437400,9.5204375,0.022602014243602753,0.021380282938480377,-0.00366519158706069
1683474513355381000,9.530381103515625,0.02382374368607998,0.021380282938480377,-0.001832595793530345
1683474513365407700,9.54040771484375,0.022602014243602753,0.019547687843441963,-0.003054326167330146
1683474513375400400,9.550400390625,0.02382374368607998,0.02015855349600315,-0.003054326167330146
1683474513385396500,9.560396484375,0.022602014243602753,0.021380282938480377,-0.001832595793530345
1683474513395389400,9.570389404296876,0.022602014243602753,0.021380282938480377,-0.001832595793530345
1683474513405416000,9.580416015625,0.022602014243602753,0.02015855349600315,-0.0024434609804302454
1683474513415106000,9.59010595703125,0.02321287989616394,0.021380282938480377,-0.0012217304902151227
1683474513425405000,9.600405029296875,0.022602014243602753,0.021380282938480377,-0.003054326167330146
1683474513435398100,9.610398193359375,0.02382374368607998,0.02076941914856434,-0.003054326167330146
1683474513445399300,9.6203994140625,0.022602014243602753,0.02076941914856434,-0.0012217304902151227
1683474513455387100,9.63038720703125,0.02321287989616394,0.02015855349600315,-0.001832595793530345
1683474513465419000,9.6404189453125,0.02382374368607998,0.019547687843441963,-0.003054326167330146
1683474513475376000,9.650376220703125,0.02382374368607998,0.019547687843441963,-0.001832595793530345
1683474513485408000,9.660407958984376,0.021991148591041565,0.02076941914856434,-0.0024434609804302454
1683474513495395600,9.6703955078125,0.02321287989616394,0.02076941914856434,-0.003054326167330146
1683474513505427700,9.680427734375,0.021991148591041565,0.02076941914856434,-0.0024434609804302454
1683474513515384600,9.690384521484376,0.02321287989616394,0.02076941914856434,-0.003054326167330146
1683474513525417000,9.7004169921875,0.022602014243602753,0.02015855349600315,-0.003054326167330146
1683474513535404300,9.710404296875,0.022602014243602753,0.019547687843441963,-0.0012217304902151227
1683474513545405200,9.7204052734375,0.02382374368607998,0.02015855349600315,-0.0012217304902151227
1683474513555393000,9.73039306640625,0.022602014243602753,0.021380282938480377,-0.001832595793530345
1683474513565425200,9.740425048828126,0.021991148591041565,0.021380282938480377,-0.0012217304902151227
1683474513575382300,9.75038232421875,0.02382374368607998,0.02076941914856434,-0.001832595793530345
1683474513585414100,9.7604140625,0.02321287989616394,0.02076941914856434,-0.0024434609804302454
1683474513595401500,9.7704013671875,0.022602014243602753,0.02076941914856434,-0.0024434609804302454
1683474513605403100,9.780403076171876,0.02321287989616394,0.02015855349600315,-0.001832595793530345
1683474513615604200,9.790604248046876,0.021991148591041565,0.02076941914856434,-0.001832595793530345
1683474513625422800,9.8004228515625,0.02382374368607998,0.021991148591041565,-0.001832595793530345
1683474513635379700,9.810379638671876,0.022602014243602753,0.02076941914856434,-0.003054326167330146
1683474513645411600,9.82041162109375,0.022602014243602753,0.02076941914856434,-0.0024434609804302454
1683474513655799000,9.830799072265625,0.02382374368607998,0.02076941914856434,-0.0024434609804302454
1683474513665431300,9.840431396484375,0.022602014243602753,0.019547687843441963,-0.003054326167330146
1683474513675388400,9.850388427734375,0.021991148591041565,0.02076941914856434,-0.001832595793530345
1683474513685420300,9.860420166015626,0.022602014243602753,0.02015855349600315,-0.0024434609804302454
1683474513695377200,9.870377197265626,0.022602014243602753,0.02076941914856434,-0.003054326167330146
1683474513705409500,9.880409423828125,0.022602014243602753,0.02076941914856434,-0.0024434609804302454
1683474513715396900,9.89039697265625,0.02382374368607998,0.02076941914856434,-0.001832595793530345
1683474513725398500,9.9003984375,0.02382374368607998,0.02076941914856434,-0.001832595793530345
1683474513735385900,9.9103857421875,0.022602014243602753,0.021380282938480377,-0.0012217304902151227
1683474513745417700,9.920417724609376,0.022602014243602753,0.02076941914856434,-0.0024434609804302454
1683474513755405600,9.930405517578125,0.022602014243602753,0.02015855349600315,-0.0024434609804302454
1683474513765406700,9.94040673828125,0.02321287989616394,0.02076941914856434,-0.001832595793530345
1683474513775394600,9.95039453125,0.022602014243602753,0.021380282938480377,-0.001832595793530345
1683474513785426400,9.960426513671875,0.02321287989616394,0.02015855349600315,-0.001832595793530345
1683474513795383600,9.970383544921875,0.024434609338641167,0.02015855349600315,-0.00366519158706069
1683474513805415700,9.980415771484376,0.022602014243602753,0.02076941914856434,-0.001832595793530345
1683474513815403000,9.990403076171875,0.02321287989616394,0.019547687843441963,-0.003054326167330146
1683474513825404700,10.00040478515625,0.022602014243602753,0.02015855349600315,-0.0024434609804302454
1683474513835392000,10.01039208984375,0.02321287989616394,0.02015855349600315,-0.0024434609804302454
1683474513845423900,10.020423828125,0.02321287989616394,0.02015855349600315,-0.0024434609804302454
1683474513855381000,10.030381103515625,0.021991148591041565,0.02015855349600315,-0.001832595793530345
1683474513865411600,10.04041162109375,0.02321287989616394,0.02015855349600315,-0.001832595793530345
1683474513875399700,10.050399658203125,0.021991148591041565,0.019547687843441963,-0.003054326167330146
1683474513885400800,10.06040087890625,0.021380282938480377,0.02076941914856434,-0.0024434609804302454
1683474513895388700,10.070388671875,0.022602014243602753,0.02076941914856434,-0.0012217304902151227
1683474513905420500,10.080420654296875,0.021991148591041565,0.02015855349600315,-0.0024434609804302454
1683474513915377700,10.090377685546875,0.021991148591041565,0.019547687843441963,-0.0024434609804302454
1683474513925409500,10.100409423828125,0.022602014243602753,0.02015855349600315,-0.001832595793530345
1683474513935811600,10.1108115234375,0.02321287989616394,0.02015855349600315,-0.0012217304902151227
1683474513945454000,10.1204541015625,0.02382374368607998,0.02015855349600315,-0.003054326167330146
1683474513955386400,10.130386474609375,0.022602014243602753,0.021380282938480377,-0.00366519158706069
1683474513965419000,10.1404189453125,0.022602014243602753,0.02076941914856434,-0.001832595793530345
1683474513975376000,10.1503759765625,0.022602014243602753,0.02015855349600315,-0.001832595793530345
1683474513985408000,10.160407958984376,0.022602014243602753,0.02015855349600315,-0.003054326167330146
1683474513995395600,10.1703955078125,0.02382374368607998,0.02015855349600315,-0.003054326167330146
1683474514005427700,10.180427734375,0.02321287989616394,0.02076941914856434,-0.001832595793530345
1683474514015384600,10.190384521484376,0.021991148591041565,0.02015855349600315,-0.0012217304902151227
1683474514025416400,10.20041650390625,0.022602014243602753,0.021380282938480377,-0.0024434609804302454
1683474514035404000,10.210404052734376,0.022602014243602753,0.02015855349600315,-0.0024434609804302454
1683474514045405400,10.220405517578126,0.021991148591041565,0.02015855349600315,-0.001832595793530345
1683474514055393000,10.23039306640625,0.02321287989616394,0.02076941914856434,-0.0024434609804302454
1683474514065425200,10.240425048828126,0.022602014243602753,0.02076941914856434,-0.0024434609804302454
1683474514075382300,10.25038232421875,0.022602014243602753,0.02015855349600315,-0.0024434609804302454
1683474514085414100,10.2604140625,0.022602014243602753,0.02015855349600315,-0.0024434609804302454
1683474514095401500,10.2704013671875,0.022602014243602753,0.02015855349600315,-0.001832595793530345
1683474514105403400,10.2804033203125,0.021991148591041565,0.021380282938480377,-0.0012217304902151227
1683474514115390700,10.290390625,0.02321287989616394,0.02015855349600315,-0.0024434609804302454
1683474514125422600,10.300422607421876,0.02382374368607998,0.019547687843441963,-0.001832595793530345
1683474514135379700,10.310379638671876,0.02321287989616394,0.02015855349600315,-0.0024434609804302454
1683474514145411600,10.32041162109375,0.02321287989616394,0.021380282938480377,-0.001832595793530345
1683474514155399400,10.3303994140625,0.02321287989616394,0.02076941914856434,-0.001832595793530345
1683474514165400600,10.340400634765626,0.022602014243602753,0.021380282938480377,-0.0024434609804302454
1683474514175388200,10.35038818359375,0.02382374368607998,0.019547687843441963,-0.0012217304902151227
1683474514185420000,10.360419921875,0.02321287989616394,0.021380282938480377,-0.001832595793530345
1683474514195377200,10.370377197265626,0.02321287989616394,0.02076941914856434,-0.001832595793530345
1683474514205409300,10.3804091796875,0.02382374368607998,0.02015855349600315,-0.00366519158706069
1683474514215396900,10.39039697265625,0.022602014243602753,0.021991148591041565,-0.001832595793530345
1683474514225398300,10.400398193359376,0.021991148591041565,0.02076941914856434,-0.0024434609804302454
1683474514235385900,10.4103857421875,0.022602014243602753,0.02015855349600315,-0.001832595793530345
1683474514245417700,10.420417724609376,0.022602014243602753,0.02076941914856434,-0.0024434609804302454
1683474514255405300,10.4304052734375,0.02321287989616394,0.02015855349600315,-0.0024434609804302454
1683474514265406700,10.44040673828125,0.02321287989616394,0.019547687843441963,-0.0024434609804302454
1683474514275394300,10.450394287109376,0.022602014243602753,0.02015855349600315,-0.0024434609804302454
1683474514285426400,10.460426513671875,0.021991148591041565,0.021991148591041565,-0.0012217304902151227
1683474514295383300,10.47038330078125,0.02321287989616394,0.02076941914856434,-0.00366519158706069
1683474514305415700,10.480415771484376,0.022602014243602753,0.021380282938480377,-0.003054326167330146
1683474514315403000,10.490403076171875,0.02382374368607998,0.02015855349600315,-0.001832595793530345
1683474514325404700,10.50040478515625,0.021991148591041565,0.021380282938480377,-0.0024434609804302454
1683474514335392000,10.51039208984375,0.022602014243602753,0.02076941914856434,-0.001832595793530345
1683474514345424000,10.520423828125,0.022602014243602753,0.019547687843441963,-0.00366519158706069
1683474514355381000,10.530381103515625,0.022602014243602753,0.02015855349600315,-0.0024434609804302454
1683474514365412900,10.540412841796876,0.02321287989616394,0.02015855349600315,-0.0024434609804302454
1683474514375400400,10.550400390625,0.022602014243602753,0.02076941914856434,-0.0024434609804302454
1683474514385401900,10.56040185546875,0.022602014243602753,0.019547687843441963,-0.001832595793530345
1683474514395389400,10.570389404296876,0.02321287989616394,0.02015855349600315,-0.001832595793530345
1683474514405421600,10.580421630859375,0.02321287989616394,0.02015855349600315,-0.0024434609804302454
1683474514415378400,10.59037841796875,0.022602014243602753,0.021380282938480377,-0.001832595793530345
1683474514425424100,10.600424072265625,0.02321287989616394,0.021380282938480377,-0.0024434609804302454
1683474514435398100,10.610398193359375,0.022602014243602753,0.02015855349600315,-0.001832595793530345
1683474514445394200,10.620394287109375,0.02382374368607998,0.021380282938480377,-0.0024434609804302454
1683474514455387100,10.63038720703125,0.022602014243602753,0.02015855349600315,-0.001832595793530345
1683474514465413600,10.64041357421875,0.02321287989616394,0.02076941914856434,-0.001832595793530345
1683474514475376000,10.650376220703125,0.02382374368607998,0.019547687843441963,-0.0024434609804302454
1683474514485402400,10.66040234375,0.022602014243602753,0.021380282938480377,-0.001832595793530345
1683474514495548000,10.6705478515625,0.022602014243602753,0.019547687843441963,-0.003054326167330146
1683474514505422000,10.680422119140625,0.02382374368607998,0.021380282938480377,-0.0012217304902151227
1683474514515384600,10.690384521484376,0.02382374368607998,0.02015855349600315,-0.003054326167330146
1683474514525416400,10.70041650390625,0.02321287989616394,0.02076941914856434,-0.0024434609804302454
1683474514535495700,10.71049560546875,0.022602014243602753,0.02015855349600315,-0.0024434609804302454
1683474514545405400,10.720405517578126,0.022602014243602753,0.021380282938480377,-0.001832595793530345
1683474514555393300,10.730393310546875,0.022602014243602753,0.021380282938480377,-0.0024434609804302454
1683474514565425200,10.740425048828126,0.022602014243602753,0.02076941914856434,-0.0012217304902151227
1683474514575382300,10.75038232421875,0.02321287989616394,0.02076941914856434,-0.0024434609804302454
1683474514585414100,10.7604140625,0.02321287989616394,0.019547687843441963,-0.0012217304902151227
1683474514595401500,10.7704013671875,0.022602014243602753,0.02076941914856434,-0.001832595793530345
1683474514605403100,10.780403076171876,0.02321287989616394,0.02076941914856434,-0.001832595793530345
1683474514615390700,10.790390625,0.022602014243602753,0.02015855349600315,-0.0024434609804302454
1683474514625422600,10.800422607421876,0.022602014243602753,0.02076941914856434,-0.0012217304902151227
1683474514635379700,10.810379638671876,0.021991148591041565,0.02076941914856434,-0.001832595793530345
1683474514645411800,10.820411865234375,0.021991148591041565,0.02015855349600315,-0.0024434609804302454
1683474514655430000,10.830429931640625,0.021991148591041565,0.02015855349600315,-0.003054326167330146
1683474514665400800,10.84040087890625,0.02321287989616394,0.02076941914856434,-0.001832595793530345
1683474514675388400,10.850388427734375,0.022602014243602753,0.02015855349600315,-0.0006108652451075613
1683474514685420300,10.860420166015626,0.022602014243602753,0.021380282938480377,-0.001832595793530345
1683474514695377200,10.870377197265626,0.02382374368607998,0.02015855349600315,-0.001832595793530345
1683474514705409500,10.880409423828125,0.02321287989616394,0.02015855349600315,-0.001832595793530345
1683474514715396600,10.890396728515626,0.021991148591041565,0.02076941914856434,-0.001832595793530345
1683474514725398300,10.900398193359376,0.021991148591041565,0.02015855349600315,-0.0024434609804302454
1683474514735386000,10.91038623046875,0.02382374368607998,0.021380282938480377,-0.0024434609804302454
1683474514745418000,10.92041796875,0.02321287989616394,0.02015855349600315,-0.003054326167330146
1683474514755405600,10.930405517578125,0.02321287989616394,0.02015855349600315,-0.003054326167330146
1683474514765407000,10.940406982421875,0.02321287989616394,0.02076941914856434,-0.0024434609804302454
1683474514775394600,10.95039453125,0.02321287989616394,0.02076941914856434,-0.001832595793530345
1683474514785426400,10.960426513671875,0.02321287989616394,0.02076941914856434,-0.0006108652451075613
1683474514795383300,10.97038330078125,0.02321287989616394,0.021991148591041565,-0.0012217304902151227
1683474514805415400,10.98041552734375,0.02321287989616394,0.02015855349600315,-0.0024434609804302454
1683474514815403000,10.990403076171875,0.021380282938480377,0.02015855349600315,-0.0024434609804302454
1683474514825404400,11.000404296875,0.022602014243602753,0.02015855349600315,-0.0024434609804302454
1683474514835392000,11.01039208984375,0.02321287989616394,0.021380282938480377,-0.0024434609804302454
1683474514845424000,11.020424072265625,0.022602014243602753,0.02015855349600315,-0.0024434609804302454
1683474514855381000,11.030381103515625,0.02321287989616394,0.021380282938480377,-0.0024434609804302454
1683474514865411300,11.040411376953125,0.022602014243602753,0.02076941914856434,-0.001832595793530345
1683474514875399700,11.050399658203125,0.02382374368607998,0.02015855349600315,-0.001832595793530345
1683474514885401000,11.060401123046875,0.022602014243602753,0.021380282938480377,-0.0024434609804302454
1683474514895804200,11.07080419921875,0.02321287989616394,0.02076941914856434,-0.001832595793530345
1683474514905420800,11.0804208984375,0.022602014243602753,0.021380282938480377,-0.001832595793530345
1683474514915377700,11.090377685546875,0.022602014243602753,0.02076941914856434,-0.0024434609804302454
1683474514925409500,11.100409423828125,0.02321287989616394,0.02015855349600315,-0.0012217304902151227
1683474514935519200,11.110519287109375,0.02321287989616394,0.021991148591041565,-0.001832595793530345
1683474514945398800,11.120398681640625,0.022602014243602753,0.02076941914856434,-0.001832595793530345
1683474514955386000,11.13038623046875,0.022602014243602753,0.02076941914856434,-0.0012217304902151227
1683474514965418800,11.140418701171875,0.021991148591041565,0.02015855349600315,-0.0024434609804302454
1683474514975376000,11.1503759765625,0.021991148591041565,0.02015855349600315,-0.003054326167330146
1683474514985408000,11.160407958984376,0.02321287989616394,0.02015855349600315,-0.001832595793530345
1683474514995395600,11.1703955078125,0.022602014243602753,0.021380282938480377,-0.001832595793530345
1683474515005427700,11.180427734375,0.02321287989616394,0.02015855349600315,-0.001832595793530345
1683474515015028000,11.190028076171876,0.02321287989616394,0.021380282938480377,-0.001832595793530345
1683474515025416700,11.200416748046875,0.02321287989616394,0.02076941914856434,-0.0024434609804302454
1683474515035404000,11.210404052734376,0.02382374368607998,0.021991148591041565,-0.0012217304902151227
1683474515045405400,11.220405517578126,0.02321287989616394,0.021380282938480377,-0.001832595793530345
1683474515055393300,11.230393310546875,0.021380282938480377,0.021380282938480377,-0.001832595793530345
1683474515065425000,11.2404248046875,0.02321287989616394,0.02076941914856434,-0.001832595793530345
1683474515075382300,11.25038232421875,0.02321287989616394,0.02015855349600315,-0.001832595793530345
1683474515085414400,11.260414306640625,0.02321287989616394,0.02076941914856434,-0.0024434609804302454
1683474515095401500,11.2704013671875,0.021991148591041565,0.021380282938480377,-0.0012217304902151227
1683474515105403100,11.280403076171876,0.022602014243602753,0.02015855349600315,-0.0024434609804302454
1683474515115390700,11.290390625,0.02321287989616394,0.02015855349600315,-0.0024434609804302454
1683474515125422600,11.300422607421876,0.022602014243602753,0.021380282938480377,-0.001832595793530345
1683474515135593200,11.31059326171875,0.022602014243602753,0.02015855349600315,-0.001832595793530345
1683474515145411800,11.320411865234375,0.021991148591041565,0.02076941914856434,-0.0024434609804302454
1683474515155399400,11.3303994140625,0.02321287989616394,0.02076941914856434,-0.0024434609804302454
1683474515165400600,11.340400634765626,0.02321287989616394,0.02076941914856434,-0.003054326167330146
1683474515175388200,11.35038818359375,0.022602014243602753,0.02015855349600315,-0.0024434609804302454
1683474515185420000,11.360419921875,0.022602014243602753,0.02015855349600315,-0.001832595793530345
1683474515195377200,11.370377197265626,0.02382374368607998,0.02015855349600315,-0.0006108652451075613
1683474515205409300,11.3804091796875,0.02321287989616394,0.02076941914856434,-0.001832595793530345
1683474515215610400,11.3906103515625,0.022602014243602753,0.02076941914856434,-0.001832595793530345
1683474515225398300,11.400398193359376,0.022602014243602753,0.02076941914856434,-0.001832595793530345
1683474515235385900,11.4103857421875,0.02321287989616394,0.02076941914856434,-0.0024434609804302454
1683474515245417700,11.420417724609376,0.022602014243602753,0.02076941914856434,-0.001832595793530345
1683474515255405300,11.4304052734375,0.022602014243602753,0.02076941914856434,-0.0006108652451075613
1683474515265406700,11.44040673828125,0.024434609338641167,0.02015855349600315,-0.0024434609804302454
1683474515275394300,11.450394287109376,0.022602014243602753,0.02076941914856434,-0.0024434609804302454
1683474515285426200,11.46042626953125,0.02321287989616394,0.02076941914856434,-0.001832595793530345
1683474515295383300,11.47038330078125,0.02321287989616394,0.021380282938480377,-0.001832595793530345
1683474515305415400,11.48041552734375,0.02321287989616394,0.021380282938480377,-0.0024434609804302454
1683474515315403000,11.490403076171875,0.02321287989616394,0.02015855349600315,-0.001832595793530345
1683474515325404700,11.50040478515625,0.022602014243602753,0.02076941914856434,-0.001832595793530345
1683474515335392000,11.51039208984375,0.022602014243602753,0.02015855349600315,-0.0024434609804302454
1683474515345423600,11.520423583984375,0.02321287989616394,0.02015855349600315,-0.003054326167330146
1683474515355381000,11.530381103515625,0.02321287989616394,0.02076941914856434,-0.003054326167330146
1683474515365412900,11.540412841796876,0.022602014243602753,0.021991148591041565,-0.0012217304902151227
1683474515375400400,11.550400390625,0.02321287989616394,0.021380282938480377,-0.001832595793530345
1683474515385402000,11.560402099609375,0.022602014243602753,0.02015855349600315,-0.001832595793530345
1683474515395389400,11.570389404296876,0.02321287989616394,0.02076941914856434,-0.0024434609804302454
1683474515405421600,11.580421630859375,0.022602014243602753,0.02076941914856434,-0.001832595793530345
1683474515415378400,11.59037841796875,0.022602014243602753,0.02076941914856434,-0.0024434609804302454
1683474515425410300,11.600410400390626,0.022602014243602753,0.02015855349600315,-0.001832595793530345
1683474515435398100,11.610398193359375,0.021991148591041565,0.019547687843441963,-0.0006108652451075613
1683474515445399300,11.6203994140625,0.021991148591041565,0.02076941914856434,-0.0024434609804302454
1683474515455387100,11.63038720703125,0.02321287989616394,0.019547687843441963,-0.001832595793530345
1683474515465418800,11.640418701171875,0.02321287989616394,0.02076941914856434,-0.0024434609804302454
1683474515475376000,11.650376220703125,0.021991148591041565,0.021380282938480377,-0.0024434609804302454
1683474515485408000,11.660407958984376,0.021991148591041565,0.021380282938480377,-0.001832595793530345
1683474515495395600,11.6703955078125,0.022602014243602753,0.02015855349600315,-0.003054326167330146
1683474515505441500,11.680441650390625,0.022602014243602753,0.02015855349600315,-0.0006108652451075613
1683474515515384600,11.690384521484376,0.022602014243602753,0.02076941914856434,-0.001832595793530345
1683474515525411300,11.700411376953125,0.02321287989616394,0.02076941914856434,-0.0024434609804302454
1683474515535404000,11.710404052734376,0.021991148591041565,0.02015855349600315,-0.0012217304902151227
1683474515545400000,11.720400146484375,0.02321287989616394,0.02076941914856434,-0.001832595793530345
1683474515555393300,11.730393310546875,0.02321287989616394,0.02015855349600315,-0.001832595793530345
1683474515565420000,11.740419921875,0.022602014243602753,0.02015855349600315,-0.001832595793530345
1683474515575534600,11.75053466796875,0.02321287989616394,0.02015855349600315,-0.0024434609804302454
1683474515585408500,11.760408447265625,0.02321287989616394,0.02015855349600315,-0.0024434609804302454
1683474515595401500,11.7704013671875,0.022602014243602753,0.018936822190880775,-0.001832595793530345
1683474515605403100,11.780403076171876,0.02321287989616394,0.02015855349600315,-0.0024434609804302454
1683474515615390700,11.790390625,0.02321287989616394,0.02076941914856434,-0.001832595793530345
1683474515625422800,11.8004228515625,0.02321287989616394,0.02015855349600315,-0.0024434609804302454
1683474515635379700,11.810379638671876,0.02382374368607998,0.019547687843441963,-0.001832595793530345
1683474515645411600,11.82041162109375,0.022602014243602753,0.021380282938480377,-0.0012217304902151227
1683474515655521300,11.830521240234376,0.02321287989616394,0.019547687843441963,-0.0024434609804302454
1683474515665400600,11.840400634765626,0.022602014243602753,0.02076941914856434,-0.0024434609804302454
1683474515675388400,11.850388427734375,0.02321287989616394,0.02076941914856434,-0.0024434609804302454
1683474515685420300,11.860420166015626,0.022602014243602753,0.02076941914856434,-0.001832595793530345
1683474515695975200,11.87097509765625,0.022602014243602753,0.02015855349600315,-0.003054326167330146
1683474515715396900,11.89039697265625,0.022602014243602753,0.02076941914856434,-0.001832595793530345
1683474515725398500,11.9003984375,0.022602014243602753,0.019547687843441963,-0.001832595793530345
1683474515735385900,11.9103857421875,0.02382374368607998,0.02076941914856434,-0.0024434609804302454
1683474515745417700,11.920417724609376,0.022602014243602753,0.02076941914856434,-0.001832595793530345
1683474515755405600,11.930405517578125,0.02321287989616394,0.02015855349600315,-0.003054326167330146
1683474515765407000,11.940406982421875,0.02382374368607998,0.021380282938480377,-0.003054326167330146
1683474515775394600,11.95039453125,0.022602014243602753,0.02076941914856434,-0.001832595793530345
1683474515785426400,11.960426513671875,0.022602014243602753,0.02015855349600315,-0.003054326167330146
1683474515795383300,11.97038330078125,0.022602014243602753,0.02015855349600315,-0.0024434609804302454
1683474515805415400,11.98041552734375,0.022602014243602753,0.02076941914856434,-0.001832595793530345
1683474515815403000,11.990403076171875,0.02321287989616394,0.02076941914856434,-0.003054326167330146
1683474515825404700,12.00040478515625,0.021991148591041565,0.02015855349600315,-0.0024434609804302454
1683474515835392000,12.01039208984375,0.022602014243602753,0.018936822190880775,-0.003054326167330146
1683474515845424000,12.020424072265625,0.02321287989616394,0.02076941914856434,-0.003054326167330146
1683474515855381000,12.030381103515625,0.02321287989616394,0.02076941914856434,-0.001832595793530345
1683474515865411600,12.04041162109375,0.022602014243602753,0.02076941914856434,-0.0024434609804302454
