time,seconds_elapsed,z,y,x
1683474503845293800,0.0202939453125,9.761159896850586,-0.2082955539226532,0.08858546614646912
1683474503855273200,0.030273193359375,9.787496566772461,-0.21308395266532898,0.09816227108240128
1683474503865283000,0.040282958984375,9.78989028930664,-0.21787235140800476,0.10534487664699554
1683474503875292700,0.050292724609375,9.792284965515137,-0.2322375625371933,0.08858546614646912
1683474503885272000,0.06027197265625,9.782708168029785,-0.22744916379451752,0.11013327538967133
1683474503895282000,0.070281982421875,9.794678688049316,-0.22744916379451752,0.10295066982507706
1683474503905291500,0.08029150390625,9.77791976928711,-0.22505496442317963,0.09576806426048279
1683474503915270700,0.090270751953125,9.782708168029785,-0.21787235140800476,0.08858546614646912
1683474503925280500,0.100280517578125,9.787496566772461,-0.21787235140800476,0.10534487664699554
1683474503935290400,0.110290283203125,9.768342971801758,-0.22744916379451752,0.10534487664699554
1683474503945269500,0.12026953125,9.794678688049316,-0.23702596127986908,0.09576806426048279
1683474503955279400,0.130279296875,9.77791976928711,-0.23942017555236816,0.090979665517807
1683474503965289200,0.140289306640625,9.785101890563965,-0.22505496442317963,0.09576806426048279
1683474503975268400,0.150268310546875,9.787496566772461,-0.24181437492370605,0.08140286058187485
1683474503985278200,0.1602783203125,9.775525093078613,-0.22266076505184174,0.09576806426048279
1683474503995287800,0.170287841796875,9.78989028930664,-0.23942017555236816,0.090979665517807
1683474504005297700,0.180297607421875,9.794678688049316,-0.2346317619085312,0.08858546614646912
1683474504015277000,0.190277099609375,9.780313491821289,-0.22026655077934265,0.11013327538967133
1683474504025286700,0.20028662109375,9.785101890563965,-0.22505496442317963,0.09816227108240128
1683474504035296500,0.210296630859375,9.794678688049316,-0.21787235140800476,0.10773907601833344
1683474504045275600,0.220275634765625,9.792284965515137,-0.23942017555236816,0.090979665517807
1683474504055285500,0.230285400390625,9.794678688049316,-0.23942017555236816,0.1149216815829277
1683474504065295000,0.240295166015625,9.78989028930664,-0.22505496442317963,0.10055647045373917
1683474504075274500,0.2502744140625,9.77791976928711,-0.2082955539226532,0.12210428714752197
1683474504085284400,0.260284423828125,9.785101890563965,-0.22744916379451752,0.10773907601833344
1683474504095294000,0.2702939453125,9.787496566772461,-0.21787235140800476,0.10295066982507706
1683474504105273300,0.2802734375,9.792284965515137,-0.22266076505184174,0.09576806426048279
1683474504115283200,0.290283203125,9.78989028930664,-0.22266076505184174,0.09816227108240128
1683474504125292800,0.300292724609375,9.770736694335938,-0.2346317619085312,0.10295066982507706
1683474504134933500,0.30993359375,9.78989028930664,-0.23942017555236816,0.11971008777618408
1683474504145281800,0.32028173828125,9.801861763000488,-0.2298433631658554,0.09816227108240128
1683474504155291400,0.33029150390625,9.780313491821289,-0.22266076505184174,0.10055647045373917
1683474504165270800,0.340270751953125,9.801861763000488,-0.22026655077934265,0.10534487664699554
1683474504175280600,0.35028076171875,9.78989028930664,-0.22266076505184174,0.11252748221158981
1683474504185290200,0.360290283203125,9.78989028930664,-0.22026655077934265,0.10055647045373917
1683474504195269600,0.37026953125,9.765948295593262,-0.23702596127986908,0.10295066982507706
1683474504205279500,0.380279541015625,9.804255485534668,-0.22744916379451752,0.10295066982507706
1683474504215289000,0.3902890625,9.782708168029785,-0.2298433631658554,0.11252748221158981
1683474504225268500,0.4002685546875,9.773131370544434,-0.22026655077934265,0.10534487664699554
1683474504235278000,0.410278076171875,9.780313491821289,-0.2322375625371933,0.09576806426048279
1683474504245287700,0.42028759765625,9.799467086791992,-0.22744916379451752,0.08858546614646912
1683474504255038200,0.4300380859375,9.782708168029785,-0.2298433631658554,0.09816227108240128
1683474504265277000,0.44027685546875,9.785101890563965,-0.2322375625371933,0.10534487664699554
1683474504275286500,0.45028662109375,9.792284965515137,-0.21787235140800476,0.090979665517807
1683474504285296400,0.46029638671875,9.785101890563965,-0.22744916379451752,0.10534487664699554
1683474504295275800,0.47027587890625,9.782708168029785,-0.2082955539226532,0.10773907601833344
1683474504305285600,0.48028564453125,9.804255485534668,-0.2298433631658554,0.09576806426048279
1683474504315295200,0.490295166015625,9.797073364257812,-0.22266076505184174,0.10534487664699554
1683474504325274400,0.5002744140625,9.797073364257812,-0.22744916379451752,0.10295066982507706
1683474504335284200,0.5102841796875,9.75397777557373,-0.17956513166427612,0.05985504388809204
1683474504345293800,0.5202939453125,9.751583099365234,-0.26575639843940735,0.08379705995321274
1683474504355273200,0.530273193359375,9.794678688049316,-0.2082955539226532,0.13168109953403473
1683474504365283000,0.540282958984375,9.775525093078613,-0.2346317619085312,0.07900865375995636
1683474504375292700,0.550292724609375,9.763554573059082,-0.2082955539226532,0.10295066982507706
1683474504385272000,0.56027197265625,9.780313491821289,-0.22026655077934265,0.08619125932455063
1683474504395282000,0.570281982421875,9.816226959228516,-0.2298433631658554,0.11252748221158981
1683474504405291500,0.58029150390625,9.780313491821289,-0.22026655077934265,0.12689268589019775
1683474504415270700,0.590270751953125,9.746794700622559,-0.21308395266532898,0.08379705995321274
1683474504425280500,0.600280517578125,9.763554573059082,-0.22505496442317963,0.10055647045373917
1683474504435290400,0.610290283203125,9.787496566772461,-0.22266076505184174,0.11252748221158981
1683474504445269500,0.62026953125,9.782708168029785,-0.2346317619085312,0.09576806426048279
1683474504455279400,0.630279296875,9.792284965515137,-0.22505496442317963,0.090979665517807
1683474504465289000,0.6402890625,9.787496566772461,-0.2298433631658554,0.1149216815829277
1683474504475268400,0.650268310546875,9.782708168029785,-0.2106897532939911,0.0933738648891449
1683474504485278200,0.6602783203125,9.77791976928711,-0.2298433631658554,0.10055647045373917
1683474504495287800,0.670287841796875,9.782708168029785,-0.22744916379451752,0.10055647045373917
1683474504505297700,0.680297607421875,9.799467086791992,-0.23702596127986908,0.08858546614646912
1683474504515277000,0.690277099609375,9.780313491821289,-0.22026655077934265,0.09576806426048279
1683474504525286700,0.70028662109375,9.792284965515137,-0.22744916379451752,0.10534487664699554
1683474504535296500,0.710296630859375,9.797073364257812,-0.24420857429504395,0.10773907601833344
1683474504545275600,0.720275634765625,9.825803756713867,-0.2513911724090576,0.1173158809542656
1683474504555285200,0.73028515625,9.794678688049316,-0.23702596127986908,0.090979665517807
1683474504565295000,0.740295166015625,9.780313491821289,-0.2298433631658554,0.09816227108240128
1683474504575457500,0.75045751953125,9.782708168029785,-0.2106897532939911,0.10295066982507706
1683474504585284400,0.760284423828125,9.787496566772461,-0.2322375625371933,0.11252748221158981
1683474504595294000,0.7702939453125,9.773131370544434,-0.2322375625371933,0.10534487664699554
1683474504605273300,0.7802734375,9.782708168029785,-0.21308395266532898,0.10055647045373917
1683474504615283200,0.790283203125,9.797073364257812,-0.22505496442317963,0.1173158809542656
1683474504625292800,0.800292724609375,9.782708168029785,-0.2322375625371933,0.10534487664699554
1683474504635272000,0.81027197265625,9.785101890563965,-0.20111294090747833,0.09816227108240128
1683474504645281800,0.82028173828125,9.77791976928711,-0.23702596127986908,0.10534487664699554
1683474504655291400,0.83029150390625,9.763554573059082,-0.2059013396501541,0.08379705995321274
1683474504665270800,0.840270751953125,9.775525093078613,-0.21787235140800476,0.09816227108240128
1683474504675280600,0.85028076171875,9.792284965515137,-0.2537853717803955,0.12689268589019775
1683474504685290200,0.860290283203125,9.794678688049316,-0.24420857429504395,0.09816227108240128
1683474504695269600,0.87026953125,9.785101890563965,-0.21547815203666687,0.0933738648891449
1683474504705279500,0.880279541015625,9.787496566772461,-0.2298433631658554,0.0933738648891449
1683474504715289300,0.890289306640625,9.799467086791992,-0.2322375625371933,0.09816227108240128
1683474504725268200,0.900268310546875,9.787496566772461,-0.21547815203666687,0.10773907601833344
1683474504735278000,0.910278076171875,9.792284965515137,-0.22744916379451752,0.0933738648891449
1683474504745287700,0.92028759765625,9.797073364257812,-0.22744916379451752,0.10055647045373917
1683474504755297500,0.930297607421875,9.801861763000488,-0.2322375625371933,0.10773907601833344
1683474504765277000,0.94027685546875,9.787496566772461,-0.2346317619085312,0.11252748221158981
1683474504775286800,0.950286865234375,9.787496566772461,-0.22266076505184174,0.0933738648891449
1683474504785296400,0.96029638671875,9.787496566772461,-0.2082955539226532,0.09816227108240128
1683474504795275800,0.97027587890625,9.792284965515137,-0.23702596127986908,0.1149216815829277
1683474504805285400,0.980285400390625,9.794678688049316,-0.22505496442317963,0.10534487664699554
1683474504815295200,0.990295166015625,9.77791976928711,-0.2322375625371933,0.10055647045373917
1683474504825274400,1.0002744140625,9.799467086791992,-0.21787235140800476,0.08619125932455063
1683474504835284200,1.0102841796875,9.77791976928711,-0.2298433631658554,0.08858546614646912
1683474504845293800,1.0202939453125,9.801861763000488,-0.22505496442317963,0.09576806426048279
1683474504855273200,1.030273193359375,9.782708168029785,-0.2322375625371933,0.10773907601833344
1683474504865283000,1.040282958984375,9.799467086791992,-0.2322375625371933,0.10773907601833344
1683474504875292700,1.050292724609375,9.78989028930664,-0.2346317619085312,0.10295066982507706
1683474504885272000,1.06027197265625,9.785101890563965,-0.2322375625371933,0.090979665517807
1683474504895282000,1.070281982421875,9.782708168029785,-0.22744916379451752,0.10773907601833344
1683474504905291500,1.08029150390625,9.78989028930664,-0.22505496442317963,0.11252748221158981
1683474504915270700,1.090270751953125,9.787496566772461,-0.2346317619085312,0.090979665517807
1683474504925280500,1.100280517578125,9.787496566772461,-0.24660277366638184,0.0933738648891449
1683474504935290400,1.110290283203125,9.801861763000488,-0.22505496442317963,0.10295066982507706
1683474504945269500,1.12026953125,9.785101890563965,-0.2322375625371933,0.0933738648891449
1683474504955279400,1.130279296875,9.785101890563965,-0.22026655077934265,0.10055647045373917
1683474504965289200,1.140289306640625,9.785101890563965,-0.22026655077934265,0.11013327538967133
1683474504975268400,1.150268310546875,9.804255485534668,-0.22266076505184174,0.10773907601833344
1683474504985278200,1.1602783203125,9.780313491821289,-0.22744916379451752,0.10295066982507706
1683474504995287800,1.170287841796875,9.787496566772461,-0.22026655077934265,0.09576806426048279
1683474505005297700,1.180297607421875,9.801861763000488,-0.2298433631658554,0.11013327538967133
1683474505015277000,1.190277099609375,9.773131370544434,-0.2106897532939911,0.10295066982507706
1683474505025286700,1.20028662109375,9.78989028930664,-0.22505496442317963,0.09576806426048279
1683474505035296500,1.210296630859375,9.799467086791992,-0.2322375625371933,0.10534487664699554
1683474505045275600,1.220275634765625,9.787496566772461,-0.23702596127986908,0.09816227108240128
1683474505055285500,1.230285400390625,9.785101890563965,-0.22505496442317963,0.10534487664699554
1683474505065295000,1.240295166015625,9.78989028930664,-0.22505496442317963,0.090979665517807
1683474505075274500,1.2502744140625,9.775525093078613,-0.22266076505184174,0.0933738648891449
1683474505085284400,1.260284423828125,9.780313491821289,-0.22744916379451752,0.12689268589019775
1683474505095294000,1.2702939453125,9.780313491821289,-0.21787235140800476,0.11252748221158981
1683474505105273300,1.2802734375,9.785101890563965,-0.22266076505184174,0.08619125932455063
1683474505115283200,1.290283203125,9.792284965515137,-0.22744916379451752,0.08619125932455063
1683474505125292800,1.300292724609375,9.801861763000488,-0.22026655077934265,0.10773907601833344
1683474505135272000,1.31027197265625,9.775525093078613,-0.23702596127986908,0.09576806426048279
1683474505145281800,1.32028173828125,9.787496566772461,-0.2298433631658554,0.10055647045373917
1683474505155291400,1.33029150390625,9.801861763000488,-0.21787235140800476,0.10534487664699554
1683474505165270800,1.340270751953125,9.773131370544434,-0.2298433631658554,0.0933738648891449
1683474505175280600,1.35028076171875,9.792284965515137,-0.22744916379451752,0.09816227108240128
1683474505185290200,1.360290283203125,9.787496566772461,-0.22744916379451752,0.10773907601833344
1683474505195269600,1.37026953125,9.78989028930664,-0.22744916379451752,0.11971008777618408
1683474505205279500,1.380279541015625,9.787496566772461,-0.2322375625371933,0.10295066982507706
1683474505215502800,1.3905029296875,9.773131370544434,-0.22744916379451752,0.09576806426048279
1683474505225268500,1.4002685546875,9.787496566772461,-0.22744916379451752,0.08619125932455063
1683474505235278000,1.410278076171875,9.770736694335938,-0.2322375625371933,0.10055647045373917
1683474505245287700,1.42028759765625,9.780313491821289,-0.22744916379451752,0.11252748221158981
1683474505255297500,1.430297607421875,9.787496566772461,-0.2346317619085312,0.08619125932455063
1683474505265277000,1.44027685546875,9.780313491821289,-0.22505496442317963,0.08858546614646912
1683474505275286500,1.45028662109375,9.773131370544434,-0.2322375625371933,0.10295066982507706
1683474505285296400,1.46029638671875,9.792284965515137,-0.24181437492370605,0.10055647045373917
1683474505295519700,1.470519775390625,9.78989028930664,-0.22505496442317963,0.10055647045373917
1683474505305285600,1.48028564453125,9.763554573059082,-0.2322375625371933,0.10773907601833344
1683474505315295200,1.490295166015625,9.775525093078613,-0.24899697303771973,0.10055647045373917
1683474505325274400,1.5002744140625,9.780313491821289,-0.2298433631658554,0.10055647045373917
1683474505335284200,1.5102841796875,9.792284965515137,-0.24181437492370605,0.10534487664699554
1683474505345293800,1.5202939453125,9.780313491821289,-0.2346317619085312,0.1173158809542656
1683474505355273200,1.530273193359375,9.775525093078613,-0.22266076505184174,0.10534487664699554
1683474505365283000,1.540282958984375,9.787496566772461,-0.22505496442317963,0.08619125932455063
1683474505375292700,1.550292724609375,9.773131370544434,-0.22505496442317963,0.090979665517807
1683474505385272000,1.56027197265625,9.799467086791992,-0.2298433631658554,0.10055647045373917
1683474505395282000,1.570281982421875,9.787496566772461,-0.22505496442317963,0.09576806426048279
1683474505405291500,1.58029150390625,9.77791976928711,-0.22505496442317963,0.11013327538967133
1683474505415271000,1.59027099609375,9.77791976928711,-0.2322375625371933,0.10055647045373917
1683474505425280500,1.600280517578125,9.78989028930664,-0.22744916379451752,0.10055647045373917
1683474505435290400,1.610290283203125,9.785101890563965,-0.21547815203666687,0.08858546614646912
1683474505445269500,1.62026953125,9.792284965515137,-0.22505496442317963,0.10055647045373917
1683474505454843600,1.62984375,9.765948295593262,-0.22266076505184174,0.10534487664699554
1683474505465289000,1.6402890625,9.785101890563965,-0.22505496442317963,0.08858546614646912
1683474505475268400,1.650268310546875,9.782708168029785,-0.23942017555236816,0.10295066982507706
1683474505485278200,1.6602783203125,9.765948295593262,-0.22505496442317963,0.10055647045373917
1683474505495287800,1.670287841796875,9.782708168029785,-0.24181437492370605,0.08858546614646912
1683474505505297700,1.680297607421875,9.792284965515137,-0.23942017555236816,0.10295066982507706
1683474505515277000,1.690277099609375,9.787496566772461,-0.22505496442317963,0.10055647045373917
1683474505525287000,1.700286865234375,9.797073364257812,-0.2298433631658554,0.10534487664699554
1683474505535296500,1.710296630859375,9.77791976928711,-0.2322375625371933,0.10773907601833344
1683474505545275600,1.720275634765625,9.78989028930664,-0.2322375625371933,0.09576806426048279
1683474505555285200,1.73028515625,9.775525093078613,-0.23702596127986908,0.09576806426048279
1683474505565295000,1.740295166015625,9.770736694335938,-0.22744916379451752,0.09576806426048279
1683474505575644700,1.750644775390625,9.78989028930664,-0.22026655077934265,0.10055647045373917
1683474505585284400,1.760284423828125,9.780313491821289,-0.2298433631658554,0.11252748221158981
1683474505595294000,1.7702939453125,9.804255485534668,-0.23942017555236816,0.11252748221158981
1683474505605273300,1.7802734375,9.77791976928711,-0.2298433631658554,0.0933738648891449
1683474505615283200,1.790283203125,9.770736694335938,-0.22505496442317963,0.10773907601833344
1683474505625292800,1.800292724609375,9.797073364257812,-0.22744916379451752,0.11013327538967133
1683474505635272000,1.81027197265625,9.792284965515137,-0.22505496442317963,0.09816227108240128
1683474505645281800,1.82028173828125,9.792284965515137,-0.22266076505184174,0.10055647045373917
1683474505655291400,1.83029150390625,9.763554573059082,-0.2346317619085312,0.10055647045373917
1683474505665270800,1.840270751953125,9.780313491821289,-0.2322375625371933,0.09816227108240128
1683474505675280600,1.85028076171875,9.787496566772461,-0.2322375625371933,0.0933738648891449
1683474505685290200,1.860290283203125,9.775525093078613,-0.2298433631658554,0.09576806426048279
1683474505695269600,1.87026953125,9.78989028930664,-0.23702596127986908,0.10773907601833344
1683474505705279500,1.880279541015625,9.782708168029785,-0.2322375625371933,0.10055647045373917
1683474505715289300,1.890289306640625,9.794678688049316,-0.21787235140800476,0.11252748221158981
1683474505725268200,1.900268310546875,9.77791976928711,-0.2537853717803955,0.10534487664699554
1683474505736007200,1.911007080078125,9.782708168029785,-0.2322375625371933,0.11971008777618408
1683474505755297500,1.930297607421875,9.794678688049316,-0.2298433631658554,0.10055647045373917
1683474505765277000,1.94027685546875,9.787496566772461,-0.23942017555236816,0.10534487664699554
1683474505775286800,1.950286865234375,9.787496566772461,-0.22266076505184174,0.10773907601833344
1683474505785296400,1.96029638671875,9.775525093078613,-0.2346317619085312,0.0933738648891449
1683474505795275800,1.97027587890625,9.794678688049316,-0.2513911724090576,0.10295066982507706
1683474505805285400,1.980285400390625,9.780313491821289,-0.2298433631658554,0.08858546614646912
1683474505815295200,1.990295166015625,9.78989028930664,-0.22744916379451752,0.0933738648891449
1683474505825274400,2.0002744140625,9.775525093078613,-0.21787235140800476,0.10773907601833344
1683474505835284200,2.0102841796875,9.787496566772461,-0.2298433631658554,0.10773907601833344
1683474505845293800,2.0202939453125,9.785101890563965,-0.21787235140800476,0.11013327538967133
1683474505855273200,2.030273193359375,9.775525093078613,-0.2298433631658554,0.10534487664699554
1683474505865283000,2.040282958984375,9.782708168029785,-0.22026655077934265,0.10055647045373917
1683474505875292700,2.050292724609375,9.792284965515137,-0.23942017555236816,0.11252748221158981
1683474505885272000,2.06027197265625,9.785101890563965,-0.22744916379451752,0.08379705995321274
1683474505895282000,2.070281982421875,9.787496566772461,-0.24899697303771973,0.0933738648891449
1683474505905291500,2.08029150390625,9.77791976928711,-0.2106897532939911,0.11013327538967133
1683474505915271000,2.09027099609375,9.78989028930664,-0.22026655077934265,0.10534487664699554
1683474505925280500,2.100280517578125,9.77791976928711,-0.22266076505184174,0.090979665517807
1683474505935382000,2.110382080078125,9.799467086791992,-0.2346317619085312,0.10534487664699554
1683474505945269800,2.120269775390625,9.801861763000488,-0.22266076505184174,0.11971008777618408
1683474505955279400,2.130279296875,9.782708168029785,-0.2106897532939911,0.09816227108240128
1683474505965289200,2.140289306640625,9.787496566772461,-0.2322375625371933,0.10295066982507706
1683474505975778000,2.150778076171875,9.785101890563965,-0.21547815203666687,0.08619125932455063
1683474505985278200,2.1602783203125,9.765948295593262,-0.22744916379451752,0.10295066982507706
1683474505995287800,2.170287841796875,9.780313491821289,-0.23942017555236816,0.0933738648891449
1683474506005297700,2.180297607421875,9.780313491821289,-0.21547815203666687,0.10055647045373917
1683474506015429600,2.1904296875,9.799467086791992,-0.22744916379451752,0.09816227108240128
1683474506025286700,2.20028662109375,9.787496566772461,-0.22744916379451752,0.10773907601833344
1683474506035296500,2.210296630859375,9.797073364257812,-0.24660277366638184,0.10055647045373917
1683474506045275600,2.220275634765625,9.77791976928711,-0.2059013396501541,0.09816227108240128
1683474506055468500,2.230468505859375,9.785101890563965,-0.21787235140800476,0.1149216815829277
1683474506065295000,2.240295166015625,9.792284965515137,-0.23942017555236816,0.11013327538967133
1683474506075274500,2.2502744140625,9.773131370544434,-0.22744916379451752,0.0933738648891449
1683474506085284400,2.260284423828125,9.78989028930664,-0.22266076505184174,0.12689268589019775
1683474506095294000,2.2702939453125,9.770736694335938,-0.2298433631658554,0.1173158809542656
1683474506105273300,2.2802734375,9.804255485534668,-0.2298433631658554,0.1149216815829277
1683474506115283200,2.290283203125,9.787496566772461,-0.21308395266532898,0.11013327538967133
1683474506125292800,2.300292724609375,9.78989028930664,-0.2322375625371933,0.1149216815829277
1683474506135272000,2.31027197265625,9.785101890563965,-0.22744916379451752,0.10295066982507706
1683474506145281800,2.32028173828125,9.787496566772461,-0.2059013396501541,0.08858546614646912
1683474506155291400,2.33029150390625,9.775525093078613,-0.23702596127986908,0.09816227108240128
1683474506165270800,2.340270751953125,9.801861763000488,-0.22744916379451752,0.10295066982507706
1683474506175442000,2.35044189453125,9.77791976928711,-0.23942017555236816,0.09576806426048279
1683474506185290200,2.360290283203125,9.775525093078613,-0.23942017555236816,0.10295066982507706
1683474506195269600,2.37026953125,9.799467086791992,-0.23942017555236816,0.10773907601833344
1683474506205279500,2.380279541015625,9.785101890563965,-0.21547815203666687,0.09576806426048279
1683474506215289000,2.3902890625,9.780313491821289,-0.21308395266532898,0.10295066982507706
1683474506225268500,2.4002685546875,9.782708168029785,-0.24660277366638184,0.08858546614646912
1683474506235278000,2.410278076171875,9.797073364257812,-0.23702596127986908,0.10295066982507706
1683474506245287700,2.42028759765625,9.768342971801758,-0.22266076505184174,0.1149216815829277
1683474506255945700,2.43094580078125,9.785101890563965,-0.22505496442317963,0.10534487664699554
1683474506275286500,2.45028662109375,9.780313491821289,-0.2298433631658554,0.10295066982507706
1683474506285296400,2.46029638671875,9.78989028930664,-0.22505496442317963,0.11013327538967133
1683474506295275800,2.47027587890625,9.794678688049316,-0.2346317619085312,0.090979665517807
1683474506305285600,2.48028564453125,9.794678688049316,-0.2298433631658554,0.09576806426048279
1683474506315295200,2.490295166015625,9.792284965515137,-0.22505496442317963,0.12210428714752197
1683474506325274400,2.5002744140625,9.78989028930664,-0.2298433631658554,0.1149216815829277
1683474506335284200,2.5102841796875,9.794678688049316,-0.23942017555236816,0.09576806426048279
1683474506345293800,2.5202939453125,9.780313491821289,-0.21308395266532898,0.10295066982507706
1683474506355273200,2.530273193359375,9.794678688049316,-0.23942017555236816,0.09816227108240128
1683474506365283000,2.540282958984375,9.77791976928711,-0.2298433631658554,0.10295066982507706
1683474506375901000,2.55090087890625,9.792284965515137,-0.2346317619085312,0.08619125932455063
1683474506395282000,2.570281982421875,9.792284965515137,-0.22505496442317963,0.09816227108240128
1683474506405291500,2.58029150390625,9.77791976928711,-0.23702596127986908,0.10055647045373917
1683474506415454000,2.590453857421875,9.785101890563965,-0.23942017555236816,0.1173158809542656
1683474506425280500,2.600280517578125,9.78989028930664,-0.20350714027881622,0.10055647045373917
1683474506435290400,2.610290283203125,9.794678688049316,-0.22744916379451752,0.0933738648891449
1683474506445269500,2.62026953125,9.794678688049316,-0.21787235140800476,0.10295066982507706
1683474506455279400,2.630279296875,9.799467086791992,-0.22266076505184174,0.09816227108240128
1683474506465289000,2.6402890625,9.770736694335938,-0.23702596127986908,0.0933738648891449
1683474506475268400,2.650268310546875,9.787496566772461,-0.22744916379451752,0.10534487664699554
1683474506485278200,2.6602783203125,9.785101890563965,-0.21308395266532898,0.0933738648891449
1683474506495287800,2.670287841796875,9.799467086791992,-0.22505496442317963,0.090979665517807
1683474506505297700,2.680297607421875,9.787496566772461,-0.2322375625371933,0.0933738648891449
1683474506515277000,2.690277099609375,9.792284965515137,-0.2106897532939911,0.090979665517807
1683474506525287000,2.700286865234375,9.787496566772461,-0.2298433631658554,0.10773907601833344
1683474506535296500,2.710296630859375,9.792284965515137,-0.23702596127986908,0.10055647045373917
1683474506545275600,2.720275634765625,9.801861763000488,-0.21547815203666687,0.11013327538967133
1683474506555285200,2.73028515625,9.780313491821289,-0.23942017555236816,0.10773907601833344
1683474506565295000,2.740295166015625,9.787496566772461,-0.2298433631658554,0.0933738648891449
1683474506575649000,2.75064892578125,9.794678688049316,-0.21547815203666687,0.11013327538967133
1683474506585284400,2.760284423828125,9.797073364257812,-0.24181437492370605,0.10295066982507706
1683474506595294000,2.7702939453125,9.801861763000488,-0.21787235140800476,0.10773907601833344
1683474506605273300,2.7802734375,9.780313491821289,-0.2346317619085312,0.10295066982507706
1683474506615731000,2.79073095703125,9.78989028930664,-0.2059013396501541,0.09816227108240128
1683474506625292800,2.800292724609375,9.787496566772461,-0.2346317619085312,0.11013327538967133
1683474506635272000,2.81027197265625,9.804255485534668,-0.2106897532939911,0.08619125932455063
1683474506645281800,2.82028173828125,9.792284965515137,-0.22744916379451752,0.10295066982507706
1683474506655291400,2.83029150390625,9.775525093078613,-0.23942017555236816,0.09816227108240128
1683474506665270800,2.840270751953125,9.77791976928711,-0.24181437492370605,0.09816227108240128
1683474506675280600,2.85028076171875,9.78989028930664,-0.2322375625371933,0.11971008777618408
1683474506685290200,2.860290283203125,9.792284965515137,-0.2322375625371933,0.10534487664699554
1683474506695269600,2.87026953125,9.787496566772461,-0.2298433631658554,0.090979665517807
1683474506705279500,2.880279541015625,9.78989028930664,-0.22744916379451752,0.08140286058187485
1683474506715289300,2.890289306640625,9.782708168029785,-0.2298433631658554,0.10055647045373917
1683474506725268200,2.900268310546875,9.787496566772461,-0.2106897532939911,0.090979665517807
1683474506734979800,2.909979736328125,9.792284965515137,-0.22744916379451752,0.08858546614646912
1683474506745287700,2.92028759765625,9.797073364257812,-0.23702596127986908,0.1149216815829277
1683474506755297500,2.930297607421875,9.785101890563965,-0.24181437492370605,0.11252748221158981
1683474506765277000,2.94027685546875,9.797073364257812,-0.23702596127986908,0.08619125932455063
1683474506775286800,2.950286865234375,9.794678688049316,-0.2106897532939911,0.1173158809542656
1683474506785296400,2.96029638671875,9.785101890563965,-0.2322375625371933,0.09816227108240128
1683474506795275800,2.97027587890625,9.785101890563965,-0.24181437492370605,0.10055647045373917
1683474506805285400,2.980285400390625,9.804255485534668,-0.23702596127986908,0.0933738648891449
1683474506814864100,2.989864013671875,9.775525093078613,-0.22266076505184174,0.11252748221158981
1683474506825304800,3.000304931640625,9.773131370544434,-0.23702596127986908,0.09576806426048279
1683474506835284200,3.0102841796875,9.77791976928711,-0.2322375625371933,0.09816227108240128
1683474506845293800,3.0202939453125,9.763554573059082,-0.23702596127986908,0.10773907601833344
1683474506855273200,3.030273193359375,9.787496566772461,-0.23942017555236816,0.11252748221158981
1683474506865283000,3.040282958984375,9.792284965515137,-0.22266076505184174,0.10534487664699554
1683474506875292700,3.050292724609375,9.787496566772461,-0.22026655077934265,0.10295066982507706
1683474506885272000,3.06027197265625,9.77791976928711,-0.23942017555236816,0.08619125932455063
1683474506895282000,3.070281982421875,9.792284965515137,-0.21547815203666687,0.10773907601833344
1683474506905291500,3.08029150390625,9.799467086791992,-0.2322375625371933,0.090979665517807
1683474506915271000,3.09027099609375,9.785101890563965,-0.24181437492370605,0.11252748221158981
1683474506925280500,3.100280517578125,9.785101890563965,-0.22744916379451752,0.10773907601833344
1683474506935290400,3.110290283203125,9.792284965515137,-0.24660277366638184,0.0933738648891449
1683474506945269800,3.120269775390625,9.80904483795166,-0.2298433631658554,0.10295066982507706
1683474506955279400,3.130279296875,9.794678688049316,-0.23702596127986908,0.10055647045373917
1683474506965289200,3.140289306640625,9.785101890563965,-0.2106897532939911,0.10773907601833344
1683474506975268400,3.150268310546875,9.787496566772461,-0.23942017555236816,0.09576806426048279
1683474506985278200,3.1602783203125,9.78989028930664,-0.23942017555236816,0.0933738648891449
1683474506995287800,3.170287841796875,9.78989028930664,-0.22026655077934265,0.11252748221158981
1683474507005297700,3.180297607421875,9.785101890563965,-0.2346317619085312,0.10055647045373917
1683474507015399200,3.190399169921875,9.77791976928711,-0.21547815203666687,0.10055647045373917
1683474507025286700,3.20028662109375,9.773131370544434,-0.22744916379451752,0.10295066982507706
1683474507035296500,3.210296630859375,9.780313491821289,-0.2346317619085312,0.10534487664699554
1683474507045275600,3.220275634765625,9.78989028930664,-0.22505496442317963,0.10295066982507706
1683474507055285500,3.230285400390625,9.780313491821289,-0.21547815203666687,0.09576806426048279
1683474507065295000,3.240295166015625,9.787496566772461,-0.2346317619085312,0.10295066982507706
1683474507075274500,3.2502744140625,9.792284965515137,-0.22266076505184174,0.09576806426048279
1683474507085284400,3.260284423828125,9.792284965515137,-0.24181437492370605,0.10055647045373917
1683474507095294000,3.2702939453125,9.77791976928711,-0.23942017555236816,0.08619125932455063
1683474507105273300,3.2802734375,9.792284965515137,-0.22505496442317963,0.10534487664699554
1683474507115283200,3.290283203125,9.792284965515137,-0.22505496442317963,0.09576806426048279
1683474507125292800,3.300292724609375,9.785101890563965,-0.2298433631658554,0.09816227108240128
1683474507134911700,3.309911865234375,9.816226959228516,-0.2346317619085312,0.10534487664699554
1683474507145281800,3.32028173828125,9.787496566772461,-0.2322375625371933,0.10055647045373917
1683474507155291400,3.33029150390625,9.785101890563965,-0.21547815203666687,0.0933738648891449
1683474507165270800,3.340270751953125,9.782708168029785,-0.24420857429504395,0.09816227108240128
1683474507175919400,3.35091943359375,9.78989028930664,-0.2322375625371933,0.0933738648891449
1683474507195269600,3.37026953125,9.792284965515137,-0.22266076505184174,0.090979665517807
1683474507205279500,3.380279541015625,9.797073364257812,-0.2322375625371933,0.11013327538967133
1683474507215712000,3.3907119140625,9.794678688049316,-0.2346317619085312,0.090979665517807
1683474507225299000,3.400298828125,9.763554573059082,-0.24899697303771973,0.090979665517807
1683474507235278000,3.410278076171875,9.78989028930664,-0.22026655077934265,0.10295066982507706
1683474507245287700,3.42028759765625,9.794678688049316,-0.2298433631658554,0.09816227108240128
1683474507255297500,3.430297607421875,9.78989028930664,-0.22744916379451752,0.10295066982507706
1683474507265277000,3.44027685546875,9.780313491821289,-0.22505496442317963,0.12689268589019775
1683474507275286500,3.45028662109375,9.775525093078613,-0.2322375625371933,0.08858546614646912
1683474507285296400,3.46029638671875,9.768342971801758,-0.2298433631658554,0.0933738648891449
1683474507295519700,3.470519775390625,9.775525093078613,-0.22266076505184174,0.0933738648891449
1683474507305285600,3.48028564453125,9.785101890563965,-0.2322375625371933,0.0933738648891449
1683474507315295200,3.490295166015625,9.775525093078613,-0.22026655077934265,0.0933738648891449
1683474507325274400,3.5002744140625,9.787496566772461,-0.23942017555236816,0.10534487664699554
1683474507335284200,3.5102841796875,9.785101890563965,-0.2322375625371933,0.090979665517807
1683474507345293800,3.5202939453125,9.804255485534668,-0.22266076505184174,0.10534487664699554
1683474507355273200,3.530273193359375,9.787496566772461,-0.24181437492370605,0.0933738648891449
1683474507365283000,3.540282958984375,9.775525093078613,-0.21547815203666687,0.10534487664699554
1683474507375292700,3.550292724609375,9.780313491821289,-0.21308395266532898,0.09816227108240128
1683474507385272000,3.56027197265625,9.773131370544434,-0.2298433631658554,0.09816227108240128
1683474507395282000,3.570281982421875,9.785101890563965,-0.22026655077934265,0.08140286058187485
1683474507405291500,3.58029150390625,9.787496566772461,-0.22744916379451752,0.08858546614646912
1683474507414900700,3.589900634765625,9.787496566772461,-0.22266076505184174,0.11013327538967133
1683474507425280500,3.600280517578125,9.780313491821289,-0.23702596127986908,0.10295066982507706
1683474507435290400,3.610290283203125,9.775525093078613,-0.2298433631658554,0.090979665517807
1683474507445269500,3.62026953125,9.785101890563965,-0.23702596127986908,0.11013327538967133
1683474507455279400,3.630279296875,9.78989028930664,-0.2346317619085312,0.09816227108240128
1683474507465289000,3.6402890625,9.78989028930664,-0.2298433631658554,0.09576806426048279
1683474507475268400,3.650268310546875,9.780313491821289,-0.21787235140800476,0.10055647045373917
1683474507485278200,3.6602783203125,9.792284965515137,-0.2346317619085312,0.1149216815829277
1683474507495287800,3.670287841796875,9.78989028930664,-0.23942017555236816,0.090979665517807
1683474507505297700,3.680297607421875,9.799467086791992,-0.22266076505184174,0.10534487664699554
1683474507515277000,3.690277099609375,9.78989028930664,-0.2322375625371933,0.10055647045373917
1683474507525287000,3.700286865234375,9.785101890563965,-0.22505496442317963,0.09816227108240128
1683474507535832000,3.71083203125,9.761159896850586,-0.22744916379451752,0.10055647045373917
1683474507555285200,3.73028515625,9.782708168029785,-0.2346317619085312,0.090979665517807
1683474507565295000,3.740295166015625,9.78989028930664,-0.2346317619085312,0.11013327538967133
1683474507575274500,3.7502744140625,9.78989028930664,-0.21547815203666687,0.090979665517807
1683474507585284400,3.760284423828125,9.799467086791992,-0.22026655077934265,0.11252748221158981
1683474507595294000,3.7702939453125,9.775525093078613,-0.22505496442317963,0.090979665517807
1683474507605273300,3.7802734375,9.794678688049316,-0.21787235140800476,0.11971008777618408
1683474507614859000,3.78985888671875,9.782708168029785,-0.22026655077934265,0.0933738648891449
1683474507625292800,3.800292724609375,9.782708168029785,-0.2298433631658554,0.09816227108240128
1683474507635272000,3.81027197265625,9.761159896850586,-0.2346317619085312,0.10295066982507706
1683474507645281800,3.82028173828125,9.794678688049316,-0.21787235140800476,0.090979665517807
1683474507655291400,3.83029150390625,9.77791976928711,-0.22026655077934265,0.0933738648891449
1683474507665270800,3.840270751953125,9.78989028930664,-0.23702596127986908,0.11252748221158981
1683474507675280600,3.85028076171875,9.78989028930664,-0.21547815203666687,0.1173158809542656
1683474507685290200,3.860290283203125,9.787496566772461,-0.2346317619085312,0.09576806426048279
1683474507695269600,3.87026953125,9.797073364257812,-0.22744916379451752,0.10773907601833344
1683474507705279500,3.880279541015625,9.787496566772461,-0.22505496442317963,0.10534487664699554
1683474507715289300,3.890289306640625,9.792284965515137,-0.22744916379451752,0.10295066982507706
1683474507725268200,3.900268310546875,9.780313491821289,-0.20350714027881622,0.09576806426048279
1683474507735491800,3.910491943359375,9.78989028930664,-0.2298433631658554,0.08858546614646912
1683474507745287700,3.92028759765625,9.780313491821289,-0.2346317619085312,0.090979665517807
1683474507755297500,3.930297607421875,9.77791976928711,-0.21787235140800476,0.11252748221158981
1683474507765277000,3.94027685546875,9.775525093078613,-0.2322375625371933,0.0933738648891449
1683474507775286800,3.950286865234375,9.794678688049316,-0.21547815203666687,0.09816227108240128
1683474507785296400,3.96029638671875,9.773131370544434,-0.21308395266532898,0.09576806426048279
1683474507795275800,3.97027587890625,9.763554573059082,-0.21787235140800476,0.0933738648891449
1683474507805285400,3.980285400390625,9.77791976928711,-0.24899697303771973,0.1173158809542656
1683474507815142700,3.990142578125,9.78989028930664,-0.22744916379451752,0.10055647045373917
1683474507825305000,4.00030517578125,9.787496566772461,-0.24181437492370605,0.10534487664699554
1683474507835284200,4.0102841796875,9.77791976928711,-0.22026655077934265,0.10055647045373917
1683474507845293800,4.0202939453125,9.770736694335938,-0.22744916379451752,0.11013327538967133
1683474507855334100,4.030334228515625,9.787496566772461,-0.22026655077934265,0.10773907601833344
1683474507865283000,4.040282958984375,9.775525093078613,-0.22026655077934265,0.1173158809542656
1683474507875292700,4.050292724609375,9.775525093078613,-0.2082955539226532,0.09816227108240128
1683474507885272000,4.06027197265625,9.780313491821289,-0.21547815203666687,0.10295066982507706
1683474507895282000,4.070281982421875,9.782708168029785,-0.22744916379451752,0.11013327538967133
1683474507905291500,4.08029150390625,9.785101890563965,-0.2322375625371933,0.09816227108240128
1683474507915271000,4.09027099609375,9.78989028930664,-0.22266076505184174,0.10773907601833344
1683474507925280500,4.100280517578125,9.792284965515137,-0.22505496442317963,0.08858546614646912
1683474507935290400,4.110290283203125,9.787496566772461,-0.2322375625371933,0.08140286058187485
1683474507945269500,4.12026953125,9.794678688049316,-0.22505496442317963,0.11013327538967133
1683474507955279400,4.130279296875,9.782708168029785,-0.23702596127986908,0.09576806426048279
1683474507965289000,4.1402890625,9.780313491821289,-0.2322375625371933,0.08619125932455063
1683474507974887700,4.1498876953125,9.782708168029785,-0.22026655077934265,0.10055647045373917
1683474507985278200,4.1602783203125,9.77791976928711,-0.2298433631658554,0.10773907601833344
1683474507995287800,4.170287841796875,9.787496566772461,-0.21547815203666687,0.08858546614646912
1683474508005297700,4.180297607421875,9.782708168029785,-0.23942017555236816,0.090979665517807
1683474508015429600,4.1904296875,9.775525093078613,-0.23702596127986908,0.1149216815829277
1683474508025286700,4.20028662109375,9.775525093078613,-0.22505496442317963,0.09576806426048279
1683474508035296500,4.210296630859375,9.792284965515137,-0.21787235140800476,0.10295066982507706
1683474508045275600,4.220275634765625,9.768342971801758,-0.23942017555236816,0.10295066982507706
1683474508055285500,4.230285400390625,9.797073364257812,-0.21787235140800476,0.09816227108240128
1683474508065295000,4.240295166015625,9.801861763000488,-0.22744916379451752,0.10773907601833344
1683474508075274500,4.2502744140625,9.780313491821289,-0.22266076505184174,0.09816227108240128
1683474508085284400,4.260284423828125,9.785101890563965,-0.23702596127986908,0.09816227108240128
1683474508095568600,4.270568603515625,9.797073364257812,-0.21547815203666687,0.10055647045373917
1683474508105273300,4.2802734375,9.797073364257812,-0.21787235140800476,0.10773907601833344
1683474508115283200,4.290283203125,9.782708168029785,-0.22744916379451752,0.1149216815829277
1683474508125292800,4.300292724609375,9.787496566772461,-0.2322375625371933,0.10055647045373917
1683474508134858500,4.3098583984375,9.787496566772461,-0.23942017555236816,0.10773907601833344
1683474508145281800,4.32028173828125,9.77791976928711,-0.22026655077934265,0.11252748221158981
1683474508155291400,4.33029150390625,9.792284965515137,-0.21308395266532898,0.09816227108240128
1683474508165270800,4.340270751953125,9.785101890563965,-0.23942017555236816,0.0933738648891449
1683474508175280600,4.35028076171875,9.799467086791992,-0.21787235140800476,0.09816227108240128
1683474508185290200,4.360290283203125,9.794678688049316,-0.2346317619085312,0.10295066982507706
1683474508195269600,4.37026953125,9.782708168029785,-0.23702596127986908,0.09816227108240128
1683474508205279500,4.380279541015625,9.78989028930664,-0.2346317619085312,0.090979665517807
1683474508214856400,4.3898564453125,9.794678688049316,-0.2298433631658554,0.10055647045373917
1683474508225299000,4.400298828125,9.801861763000488,-0.23702596127986908,0.10773907601833344
1683474508235278000,4.410278076171875,9.792284965515137,-0.2346317619085312,0.1149216815829277
1683474508245287700,4.42028759765625,9.785101890563965,-0.22744916379451752,0.11013327538967133
1683474508255389200,4.43038916015625,9.78989028930664,-0.21547815203666687,0.08858546614646912
1683474508265277000,4.44027685546875,9.799467086791992,-0.22266076505184174,0.0933738648891449
1683474508275286800,4.450286865234375,9.78989028930664,-0.2346317619085312,0.10055647045373917
1683474508285296400,4.46029638671875,9.785101890563965,-0.2059013396501541,0.09816227108240128
1683474508295275800,4.47027587890625,9.794678688049316,-0.22505496442317963,0.10055647045373917
1683474508305285400,4.480285400390625,9.78989028930664,-0.2322375625371933,0.10055647045373917
1683474508315295200,4.490295166015625,9.780313491821289,-0.21547815203666687,0.11013327538967133
1683474508325274400,4.5002744140625,9.787496566772461,-0.22266076505184174,0.0933738648891449
1683474508335284200,4.5102841796875,9.770736694335938,-0.22505496442317963,0.09576806426048279
1683474508345293800,4.5202939453125,9.773131370544434,-0.2298433631658554,0.10055647045373917
1683474508355273200,4.530273193359375,9.787496566772461,-0.23942017555236816,0.10055647045373917
1683474508365283000,4.540282958984375,9.782708168029785,-0.2346317619085312,0.11013327538967133
1683474508375292700,4.550292724609375,9.787496566772461,-0.22744916379451752,0.11252748221158981
1683474508385272000,4.56027197265625,9.775525093078613,-0.22266076505184174,0.08858546614646912
1683474508395282000,4.570281982421875,9.770736694335938,-0.22505496442317963,0.10773907601833344
1683474508405291500,4.58029150390625,9.78989028930664,-0.22744916379451752,0.10534487664699554
1683474508415271000,4.59027099609375,9.792284965515137,-0.2346317619085312,0.10534487664699554
1683474508425280500,4.600280517578125,9.785101890563965,-0.2346317619085312,0.10055647045373917
1683474508435290400,4.610290283203125,9.773131370544434,-0.23702596127986908,0.090979665517807
1683474508445269500,4.62026953125,9.785101890563965,-0.22505496442317963,0.10295066982507706
1683474508455279400,4.630279296875,9.797073364257812,-0.2322375625371933,0.11013327538967133
1683474508465289000,4.6402890625,9.77791976928711,-0.22266076505184174,0.09576806426048279
1683474508475268400,4.650268310546875,9.768342971801758,-0.2346317619085312,0.10773907601833344
1683474508485278200,4.6602783203125,9.770736694335938,-0.22505496442317963,0.10055647045373917
1683474508495287800,4.670287841796875,9.794678688049316,-0.22505496442317963,0.0933738648891449
1683474508505297700,4.680297607421875,9.77791976928711,-0.23942017555236816,0.1173158809542656
1683474508515277000,4.690277099609375,9.763554573059082,-0.22266076505184174,0.0933738648891449
1683474508525286700,4.70028662109375,9.794678688049316,-0.22266076505184174,0.09816227108240128
1683474508535296500,4.710296630859375,9.797073364257812,-0.22266076505184174,0.10534487664699554
1683474508545275600,4.720275634765625,9.785101890563965,-0.23702596127986908,0.09816227108240128
1683474508555285500,4.730285400390625,9.763554573059082,-0.2322375625371933,0.10534487664699554
1683474508565295000,4.740295166015625,9.775525093078613,-0.2298433631658554,0.08858546614646912
1683474508575274500,4.7502744140625,9.775525093078613,-0.22266076505184174,0.090979665517807
1683474508585284400,4.760284423828125,9.792284965515137,-0.2082955539226532,0.08858546614646912
1683474508595294000,4.7702939453125,9.785101890563965,-0.2298433631658554,0.10534487664699554
1683474508605273300,4.7802734375,9.775525093078613,-0.22505496442317963,0.09816227108240128
1683474508615283200,4.790283203125,9.797073364257812,-0.2298433631658554,0.0933738648891449
1683474508625292800,4.800292724609375,9.792284965515137,-0.2346317619085312,0.10055647045373917
1683474508635272000,4.81027197265625,9.78989028930664,-0.2298433631658554,0.090979665517807
1683474508645281800,4.82028173828125,9.782708168029785,-0.2298433631658554,0.11013327538967133
1683474508655291400,4.83029150390625,9.801861763000488,-0.22505496442317963,0.09816227108240128
1683474508665270800,4.840270751953125,9.785101890563965,-0.22744916379451752,0.11252748221158981
1683474508675280600,4.85028076171875,9.787496566772461,-0.21547815203666687,0.11971008777618408
1683474508685290200,4.860290283203125,9.785101890563965,-0.2298433631658554,0.090979665517807
1683474508695269600,4.87026953125,9.78989028930664,-0.2322375625371933,0.0933738648891449
1683474508705279500,4.880279541015625,9.785101890563965,-0.24181437492370605,0.10055647045373917
1683474508715289300,4.890289306640625,9.780313491821289,-0.22266076505184174,0.11971008777618408
1683474508725268200,4.900268310546875,9.782708168029785,-0.2346317619085312,0.09576806426048279
1683474508735278000,4.910278076171875,9.77791976928711,-0.22744916379451752,0.09576806426048279
1683474508745287700,4.92028759765625,9.77791976928711,-0.2298433631658554,0.090979665517807
1683474508755297500,4.930297607421875,9.806650161743164,-0.23702596127986908,0.11252748221158981
1683474508765277000,4.94027685546875,9.804255485534668,-0.24420857429504395,0.10295066982507706
1683474508775286800,4.950286865234375,9.792284965515137,-0.23942017555236816,0.10055647045373917
1683474508785296400,4.96029638671875,9.792284965515137,-0.22266076505184174,0.090979665517807
1683474508795275800,4.97027587890625,9.787496566772461,-0.2346317619085312,0.10295066982507706
1683474508805285400,4.980285400390625,9.77791976928711,-0.22266076505184174,0.10055647045373917
1683474508815295200,4.990295166015625,9.799467086791992,-0.21787235140800476,0.10295066982507706
1683474508825274400,5.0002744140625,9.787496566772461,-0.22505496442317963,0.11013327538967133
1683474508835284200,5.0102841796875,9.77791976928711,-0.24420857429504395,0.09576806426048279
1683474508845293800,5.0202939453125,9.770736694335938,-0.22505496442317963,0.1149216815829277
1683474508855273200,5.030273193359375,9.794678688049316,-0.2298433631658554,0.10773907601833344
1683474508865283000,5.040282958984375,9.782708168029785,-0.2346317619085312,0.10534487664699554
1683474508875292700,5.050292724609375,9.787496566772461,-0.2322375625371933,0.09576806426048279
1683474508885272000,5.06027197265625,9.794678688049316,-0.24420857429504395,0.10534487664699554
1683474508895282000,5.070281982421875,9.782708168029785,-0.24420857429504395,0.0933738648891449
1683474508905291500,5.08029150390625,9.78989028930664,-0.23702596127986908,0.11252748221158981
1683474508915271000,5.09027099609375,9.780313491821289,-0.2298433631658554,0.08619125932455063
1683474508925280800,5.10028076171875,9.77791976928711,-0.22744916379451752,0.0933738648891449
1683474508935290400,5.110290283203125,9.792284965515137,-0.2346317619085312,0.10534487664699554
1683474508945269500,5.12026953125,9.780313491821289,-0.23702596127986908,0.10295066982507706
1683474508955279400,5.130279296875,9.794678688049316,-0.2322375625371933,0.08858546614646912
1683474508965289000,5.1402890625,9.792284965515137,-0.22266076505184174,0.09816227108240128
1683474508975268400,5.150268310546875,9.797073364257812,-0.21787235140800476,0.12928688526153564
1683474508985278200,5.1602783203125,9.77791976928711,-0.22505496442317963,0.0933738648891449
1683474508995287800,5.170287841796875,9.799467086791992,-0.2322375625371933,0.09576806426048279
1683474509005297700,5.180297607421875,9.801861763000488,-0.22266076505184174,0.08619125932455063
1683474509015277000,5.190277099609375,9.794678688049316,-0.2346317619085312,0.09816227108240128
1683474509025286700,5.20028662109375,9.773131370544434,-0.2082955539226532,0.10295066982507706
1683474509035296500,5.210296630859375,9.792284965515137,-0.23942017555236816,0.09816227108240128
1683474509045275600,5.220275634765625,9.77791976928711,-0.22266076505184174,0.10773907601833344
1683474509055560200,5.230560302734375,9.780313491821289,-0.2298433631658554,0.10534487664699554
1683474509065295000,5.240295166015625,9.77791976928711,-0.2298433631658554,0.09576806426048279
1683474509075274500,5.2502744140625,9.792284965515137,-0.2106897532939911,0.090979665517807
1683474509085284400,5.260284423828125,9.785101890563965,-0.22744916379451752,0.10773907601833344
1683474509095416000,5.270416015625,9.801861763000488,-0.2322375625371933,0.11013327538967133
1683474509105273300,5.2802734375,9.794678688049316,-0.23702596127986908,0.10295066982507706
1683474509115283200,5.290283203125,9.775525093078613,-0.22744916379451752,0.10773907601833344
1683474509125292800,5.300292724609375,9.797073364257812,-0.22026655077934265,0.10295066982507706
1683474509135272000,5.31027197265625,9.787496566772461,-0.23702596127986908,0.10295066982507706
1683474509145281800,5.32028173828125,9.792284965515137,-0.21787235140800476,0.08379705995321274
1683474509155291400,5.33029150390625,9.78989028930664,-0.2298433631658554,0.10773907601833344
1683474509165270800,5.340270751953125,9.804255485534668,-0.2298433631658554,0.11252748221158981
1683474509174847500,5.349847412109375,9.78989028930664,-0.2346317619085312,0.09576806426048279
1683474509185290200,5.360290283203125,9.77791976928711,-0.21787235140800476,0.10534487664699554
1683474509195269600,5.37026953125,9.785101890563965,-0.2106897532939911,0.10773907601833344
1683474509205279500,5.380279541015625,9.765948295593262,-0.2322375625371933,0.10295066982507706
1683474509215431700,5.390431640625,9.785101890563965,-0.22026655077934265,0.10295066982507706
1683474509225299000,5.400298828125,9.78989028930664,-0.2322375625371933,0.11013327538967133
1683474509235278000,5.410278076171875,9.773131370544434,-0.22266076505184174,0.11252748221158981
1683474509245287700,5.42028759765625,9.780313491821289,-0.21547815203666687,0.10295066982507706
1683474509255489500,5.430489501953125,9.792284965515137,-0.22505496442317963,0.10295066982507706
1683474509265277000,5.44027685546875,9.773131370544434,-0.23702596127986908,0.11252748221158981
1683474509275286800,5.450286865234375,9.787496566772461,-0.21787235140800476,0.10055647045373917
1683474509285296400,5.46029638671875,9.780313491821289,-0.24181437492370605,0.0933738648891449
1683474509295275800,5.47027587890625,9.78989028930664,-0.22266076505184174,0.10055647045373917
1683474509305285400,5.480285400390625,9.78989028930664,-0.22026655077934265,0.11252748221158981
1683474509315295200,5.490295166015625,9.782708168029785,-0.2298433631658554,0.09576806426048279
1683474509325274400,5.5002744140625,9.801861763000488,-0.2298433631658554,0.08379705995321274
1683474509335284200,5.5102841796875,9.81143856048584,-0.24181437492370605,0.090979665517807
1683474509345293800,5.5202939453125,9.782708168029785,-0.24660277366638184,0.08379705995321274
1683474509355273200,5.530273193359375,9.77791976928711,-0.2298433631658554,0.10295066982507706
1683474509365283000,5.540282958984375,9.77791976928711,-0.23702596127986908,0.090979665517807
1683474509375292700,5.550292724609375,9.799467086791992,-0.24181437492370605,0.10773907601833344
1683474509385272000,5.56027197265625,9.785101890563965,-0.23702596127986908,0.09816227108240128
1683474509395282000,5.570281982421875,9.782708168029785,-0.22266076505184174,0.10295066982507706
1683474509405291500,5.58029150390625,9.775525093078613,-0.22026655077934265,0.09576806426048279
1683474509414872300,5.589872314453125,9.77791976928711,-0.22505496442317963,0.11252748221158981
1683474509425280800,5.60028076171875,9.782708168029785,-0.24420857429504395,0.09576806426048279
1683474509435290400,5.610290283203125,9.765948295593262,-0.2298433631658554,0.10773907601833344
1683474509445269800,5.620269775390625,9.794678688049316,-0.22266076505184174,0.09576806426048279
1683474509455279400,5.630279296875,9.78989028930664,-0.2298433631658554,0.08619125932455063
1683474509465289200,5.640289306640625,9.782708168029785,-0.23702596127986908,0.09816227108240128
1683474509475268400,5.650268310546875,9.785101890563965,-0.23702596127986908,0.09816227108240128
1683474509485278200,5.6602783203125,9.792284965515137,-0.21547815203666687,0.090979665517807
1683474509495287800,5.670287841796875,9.797073364257812,-0.2298433631658554,0.10055647045373917
1683474509505297700,5.680297607421875,9.775525093078613,-0.24660277366638184,0.10773907601833344
1683474509515277000,5.690277099609375,9.799467086791992,-0.2322375625371933,0.10295066982507706
1683474509525287000,5.700286865234375,9.787496566772461,-0.24181437492370605,0.10295066982507706
1683474509535296500,5.710296630859375,9.77791976928711,-0.2346317619085312,0.10773907601833344
1683474509545275600,5.720275634765625,9.782708168029785,-0.2298433631658554,0.10055647045373917
1683474509555285200,5.73028515625,9.775525093078613,-0.22744916379451752,0.09576806426048279
1683474509565295000,5.740295166015625,9.77791976928711,-0.21547815203666687,0.10534487664699554
1683474509575274500,5.7502744140625,9.775525093078613,-0.22266076505184174,0.10534487664699554
1683474509585284400,5.760284423828125,9.785101890563965,-0.22266076505184174,0.090979665517807
1683474509595294000,5.7702939453125,9.782708168029785,-0.22744916379451752,0.10773907601833344
1683474509605273300,5.7802734375,9.775525093078613,-0.21547815203666687,0.09816227108240128
1683474509615908900,5.790908935546875,9.770736694335938,-0.21308395266532898,0.11013327538967133
1683474509635272000,5.81027197265625,9.785101890563965,-0.2298433631658554,0.10773907601833344
1683474509645281800,5.82028173828125,9.787496566772461,-0.22744916379451752,0.10773907601833344
1683474509655474700,5.830474609375,9.785101890563965,-0.2298433631658554,0.10534487664699554
1683474509665270800,5.840270751953125,9.787496566772461,-0.22505496442317963,0.10295066982507706
1683474509675280600,5.85028076171875,9.780313491821289,-0.22266076505184174,0.08858546614646912
1683474509685290200,5.860290283203125,9.768342971801758,-0.23942017555236816,0.0933738648891449
1683474509695269600,5.87026953125,9.785101890563965,-0.2322375625371933,0.09576806426048279
1683474509705279500,5.880279541015625,9.77791976928711,-0.22026655077934265,0.10295066982507706
1683474509715289000,5.8902890625,9.780313491821289,-0.24420857429504395,0.10534487664699554
1683474509725268200,5.900268310546875,9.768342971801758,-0.22744916379451752,0.12210428714752197
1683474509735278000,5.910278076171875,9.77791976928711,-0.21787235140800476,0.09816227108240128
1683474509745287700,5.92028759765625,9.794678688049316,-0.22266076505184174,0.10534487664699554
1683474509755297500,5.930297607421875,9.77791976928711,-0.24420857429504395,0.090979665517807
1683474509765277000,5.94027685546875,9.804255485534668,-0.24420857429504395,0.11013327538967133
1683474509775286500,5.95028662109375,9.782708168029785,-0.24181437492370605,0.09816227108240128
1683474509785296400,5.96029638671875,9.785101890563965,-0.22266076505184174,0.10295066982507706
1683474509795275800,5.97027587890625,9.780313491821289,-0.23702596127986908,0.10055647045373917
1683474509805285600,5.98028564453125,9.782708168029785,-0.2346317619085312,0.11013327538967133
1683474509815295200,5.990295166015625,9.78989028930664,-0.21547815203666687,0.10055647045373917
1683474509825274400,6.0002744140625,9.775525093078613,-0.2346317619085312,0.09816227108240128
1683474509835284200,6.0102841796875,9.775525093078613,-0.24181437492370605,0.09576806426048279
1683474509845293800,6.0202939453125,9.78989028930664,-0.22266076505184174,0.10773907601833344
1683474509855273200,6.030273193359375,9.77791976928711,-0.21308395266532898,0.10295066982507706
1683474509865283000,6.040282958984375,9.77791976928711,-0.2346317619085312,0.10295066982507706
1683474509875292700,6.050292724609375,9.773131370544434,-0.2298433631658554,0.10295066982507706
1683474509885272000,6.06027197265625,9.782708168029785,-0.22744916379451752,0.12928688526153564
1683474509895282000,6.070281982421875,9.775525093078613,-0.2298433631658554,0.0933738648891449
1683474509905291500,6.08029150390625,9.775525093078613,-0.22026655077934265,0.09576806426048279
1683474509915271000,6.09027099609375,9.780313491821289,-0.23942017555236816,0.10295066982507706
1683474509925280800,6.10028076171875,9.775525093078613,-0.22266076505184174,0.10773907601833344
1683474509935290400,6.110290283203125,9.758766174316406,-0.2346317619085312,0.10055647045373917
1683474509945269500,6.12026953125,9.797073364257812,-0.22026655077934265,0.10534487664699554
1683474509955279400,6.130279296875,9.804255485534668,-0.2322375625371933,0.10773907601833344
1683474509965289200,6.140289306640625,9.792284965515137,-0.22744916379451752,0.10295066982507706
1683474509975268400,6.150268310546875,9.782708168029785,-0.2298433631658554,0.11013327538967133
1683474509985278200,6.1602783203125,9.765948295593262,-0.21787235140800476,0.09576806426048279
1683474509995287800,6.170287841796875,9.797073364257812,-0.22505496442317963,0.09816227108240128
1683474510005297700,6.180297607421875,9.804255485534668,-0.2298433631658554,0.11013327538967133
1683474510015307500,6.1903076171875,9.799467086791992,-0.23702596127986908,0.10534487664699554
1683474510025287000,6.200286865234375,9.782708168029785,-0.22505496442317963,0.10295066982507706
1683474510035296500,6.210296630859375,9.794678688049316,-0.2298433631658554,0.12689268589019775
1683474510045275600,6.220275634765625,9.782708168029785,-0.24420857429504395,0.11252748221158981
1683474510055694800,6.23069482421875,9.794678688049316,-0.22266076505184174,0.10534487664699554
1683474510065295000,6.240295166015625,9.787496566772461,-0.23702596127986908,0.090979665517807
1683474510075274500,6.2502744140625,9.78989028930664,-0.24660277366638184,0.10295066982507706
1683474510085284400,6.260284423828125,9.787496566772461,-0.22744916379451752,0.0933738648891449
1683474510095742500,6.270742431640625,9.78989028930664,-0.2298433631658554,0.09816227108240128
1683474510105303800,6.2803037109375,9.770736694335938,-0.22505496442317963,0.10295066982507706
1683474510115283200,6.290283203125,9.794678688049316,-0.22026655077934265,0.09816227108240128
1683474510125292800,6.300292724609375,9.768342971801758,-0.2346317619085312,0.11013327538967133
1683474510135333000,6.3103330078125,9.785101890563965,-0.21547815203666687,0.10534487664699554
1683474510145281800,6.32028173828125,9.785101890563965,-0.22266076505184174,0.08858546614646912
1683474510155291400,6.33029150390625,9.785101890563965,-0.21308395266532898,0.09816227108240128
1683474510165270800,6.340270751953125,9.792284965515137,-0.22026655077934265,0.090979665517807
1683474510175280600,6.35028076171875,9.794678688049316,-0.2298433631658554,0.10534487664699554
1683474510185290200,6.360290283203125,9.765948295593262,-0.2298433631658554,0.10295066982507706
1683474510195269600,6.37026953125,9.78989028930664,-0.23942017555236816,0.0933738648891449
1683474510205279500,6.380279541015625,9.77791976928711,-0.22744916379451752,0.07422025501728058
1683474510214872300,6.389872314453125,9.78989028930664,-0.24660277366638184,0.11252748221158981
1683474510225299000,6.400298828125,9.785101890563965,-0.21308395266532898,0.10295066982507706
1683474510235278000,6.410278076171875,9.792284965515137,-0.22026655077934265,0.09816227108240128
1683474510245287700,6.42028759765625,9.78989028930664,-0.21787235140800476,0.09576806426048279
1683474510255297500,6.430297607421875,9.785101890563965,-0.2298433631658554,0.11252748221158981
1683474510265277000,6.44027685546875,9.77791976928711,-0.20350714027881622,0.10295066982507706
1683474510275286500,6.45028662109375,9.797073364257812,-0.2346317619085312,0.10534487664699554
1683474510285296400,6.46029638671875,9.799467086791992,-0.23942017555236816,0.10295066982507706
1683474510295275800,6.47027587890625,9.780313491821289,-0.22266076505184174,0.090979665517807
1683474510305285600,6.48028564453125,9.77791976928711,-0.2298433631658554,0.09576806426048279
1683474510315295200,6.490295166015625,9.77791976928711,-0.22505496442317963,0.09576806426048279
1683474510325274400,6.5002744140625,9.77791976928711,-0.2298433631658554,0.10534487664699554
1683474510335284200,6.5102841796875,9.80904483795166,-0.22505496442317963,0.090979665517807
1683474510345293800,6.5202939453125,9.77791976928711,-0.22744916379451752,0.08379705995321274
1683474510355273200,6.530273193359375,9.785101890563965,-0.2346317619085312,0.10055647045373917
1683474510365283000,6.540282958984375,9.78989028930664,-0.23942017555236816,0.11252748221158981
1683474510375292700,6.550292724609375,9.794678688049316,-0.2298433631658554,0.1149216815829277
1683474510385272000,6.56027197265625,9.785101890563965,-0.23702596127986908,0.08858546614646912
1683474510395282000,6.570281982421875,9.782708168029785,-0.23942017555236816,0.11013327538967133
1683474510405291500,6.58029150390625,9.785101890563965,-0.21547815203666687,0.09816227108240128
1683474510415876900,6.590876953125,9.770736694335938,-0.21547815203666687,0.09816227108240128
1683474510435290400,6.610290283203125,9.782708168029785,-0.21547815203666687,0.10534487664699554
1683474510445269500,6.62026953125,9.792284965515137,-0.2346317619085312,0.09816227108240128
1683474510455279400,6.630279296875,9.782708168029785,-0.2059013396501541,0.10534487664699554
1683474510465289000,6.6402890625,9.782708168029785,-0.24181437492370605,0.09816227108240128
1683474510475268400,6.650268310546875,9.773131370544434,-0.22505496442317963,0.10055647045373917
1683474510485278200,6.6602783203125,9.780313491821289,-0.21547815203666687,0.11252748221158981
1683474510494866400,6.669866455078125,9.775525093078613,-0.2346317619085312,0.11013327538967133
1683474510505297700,6.680297607421875,9.780313491821289,-0.22744916379451752,0.10295066982507706
1683474510515277000,6.690277099609375,9.770736694335938,-0.2322375625371933,0.11252748221158981
1683474510525286700,6.70028662109375,9.77791976928711,-0.22744916379451752,0.08379705995321274
1683474510535296500,6.710296630859375,9.785101890563965,-0.22744916379451752,0.1173158809542656
1683474510545275600,6.720275634765625,9.782708168029785,-0.23942017555236816,0.07900865375995636
1683474510555285500,6.730285400390625,9.782708168029785,-0.22505496442317963,0.09816227108240128
1683474510565295000,6.740295166015625,9.773131370544434,-0.22266076505184174,0.1149216815829277
1683474510575274500,6.7502744140625,9.782708168029785,-0.21787235140800476,0.10295066982507706
1683474510585284400,6.760284423828125,9.801861763000488,-0.23942017555236816,0.10773907601833344
1683474510595294000,6.7702939453125,9.78989028930664,-0.22744916379451752,0.10055647045373917
1683474510605273300,6.7802734375,9.780313491821289,-0.2298433631658554,0.10055647045373917
1683474510614948000,6.789947998046875,9.775525093078613,-0.2322375625371933,0.09816227108240128
1683474510625292800,6.800292724609375,9.801861763000488,-0.2298433631658554,0.10295066982507706
1683474510635272000,6.81027197265625,9.773131370544434,-0.22744916379451752,0.10055647045373917
1683474510645281800,6.82028173828125,9.787496566772461,-0.2298433631658554,0.10055647045373917
1683474510655291400,6.83029150390625,9.782708168029785,-0.2322375625371933,0.09816227108240128
1683474510665270800,6.840270751953125,9.780313491821289,-0.21308395266532898,0.09816227108240128
1683474510675280600,6.85028076171875,9.775525093078613,-0.23702596127986908,0.0933738648891449
1683474510685290200,6.860290283203125,9.787496566772461,-0.22505496442317963,0.10295066982507706
1683474510695269600,6.87026953125,9.799467086791992,-0.2298433631658554,0.10295066982507706
1683474510705279500,6.880279541015625,9.782708168029785,-0.21308395266532898,0.10055647045373917
1683474510715289300,6.890289306640625,9.785101890563965,-0.22266076505184174,0.10055647045373917
1683474510725268500,6.9002685546875,9.782708168029785,-0.2346317619085312,0.0933738648891449
1683474510735278000,6.910278076171875,9.78989028930664,-0.23702596127986908,0.10773907601833344
1683474510745287700,6.92028759765625,9.775525093078613,-0.2298433631658554,0.0933738648891449
1683474510755297500,6.930297607421875,9.785101890563965,-0.2298433631658554,0.1173158809542656
1683474510765277000,6.94027685546875,9.78989028930664,-0.2346317619085312,0.09576806426048279
1683474510775286800,6.950286865234375,9.785101890563965,-0.2322375625371933,0.11252748221158981
1683474510785296400,6.96029638671875,9.794678688049316,-0.22744916379451752,0.10055647045373917
1683474510795275800,6.97027587890625,9.782708168029785,-0.2322375625371933,0.090979665517807
1683474510805285400,6.980285400390625,9.785101890563965,-0.2106897532939911,0.10534487664699554
1683474510815295200,6.990295166015625,9.77791976928711,-0.24181437492370605,0.1173158809542656
1683474510825274400,7.0002744140625,9.785101890563965,-0.2298433631658554,0.11252748221158981
1683474510835284200,7.0102841796875,9.801861763000488,-0.2322375625371933,0.09576806426048279
1683474510845294000,7.020294189453125,9.782708168029785,-0.24660277366638184,0.10055647045373917
1683474510855273200,7.030273193359375,9.770736694335938,-0.23702596127986908,0.10534487664699554
1683474510865283000,7.040282958984375,9.77791976928711,-0.22266076505184174,0.10055647045373917
1683474510875292700,7.050292724609375,9.797073364257812,-0.21787235140800476,0.10295066982507706
1683474510885272000,7.06027197265625,9.77791976928711,-0.22744916379451752,0.0933738648891449
1683474510895282000,7.070281982421875,9.782708168029785,-0.22744916379451752,0.10773907601833344
1683474510905291500,7.08029150390625,9.78989028930664,-0.22505496442317963,0.09576806426048279
1683474510915271000,7.09027099609375,9.792284965515137,-0.22744916379451752,0.11013327538967133
1683474510925280800,7.10028076171875,9.782708168029785,-0.2298433631658554,0.090979665517807
1683474510935290400,7.110290283203125,9.792284965515137,-0.2346317619085312,0.10055647045373917
1683474510945269800,7.120269775390625,9.77791976928711,-0.2106897532939911,0.09576806426048279
1683474510955279400,7.130279296875,9.792284965515137,-0.21787235140800476,0.090979665517807
1683474510965289200,7.140289306640625,9.782708168029785,-0.2346317619085312,0.1149216815829277
1683474510975268400,7.150268310546875,9.78989028930664,-0.22026655077934265,0.12210428714752197
1683474510985278200,7.1602783203125,9.780313491821289,-0.22266076505184174,0.10295066982507706
1683474510995287800,7.170287841796875,9.787496566772461,-0.2322375625371933,0.0933738648891449
1683474511005297700,7.180297607421875,9.792284965515137,-0.2322375625371933,0.08858546614646912
1683474511015490600,7.190490478515625,9.782708168029785,-0.22505496442317963,0.090979665517807
1683474511025286700,7.20028662109375,9.785101890563965,-0.2298433631658554,0.10055647045373917
1683474511035296500,7.210296630859375,9.77791976928711,-0.2322375625371933,0.10295066982507706
1683474511045275600,7.220275634765625,9.801861763000488,-0.23942017555236816,0.12210428714752197
1683474511055686700,7.230686767578125,9.780313491821289,-0.22026655077934265,0.08379705995321274
1683474511065295000,7.240295166015625,9.785101890563965,-0.2082955539226532,0.08858546614646912
1683474511075274500,7.2502744140625,9.78989028930664,-0.22505496442317963,0.08619125932455063
1683474511085284400,7.260284423828125,9.780313491821289,-0.22744916379451752,0.10534487664699554
1683474511095294000,7.2702939453125,9.794678688049316,-0.2298433631658554,0.0933738648891449
1683474511105273300,7.2802734375,9.773131370544434,-0.24181437492370605,0.11252748221158981
1683474511115283200,7.290283203125,9.804255485534668,-0.23942017555236816,0.09816227108240128
1683474511125292800,7.300292724609375,9.787496566772461,-0.2298433631658554,0.10055647045373917
1683474511135272000,7.31027197265625,9.78989028930664,-0.21547815203666687,0.10295066982507706
1683474511145281800,7.32028173828125,9.787496566772461,-0.2298433631658554,0.10295066982507706
1683474511155291400,7.33029150390625,9.785101890563965,-0.22266076505184174,0.10534487664699554
1683474511165270800,7.340270751953125,9.775525093078613,-0.22744916379451752,0.09816227108240128
1683474511175555000,7.35055517578125,9.806650161743164,-0.23702596127986908,0.10773907601833344
1683474511185290200,7.360290283203125,9.78989028930664,-0.2106897532939911,0.10534487664699554
1683474511195269600,7.37026953125,9.797073364257812,-0.24420857429504395,0.09816227108240128
1683474511205279500,7.380279541015625,9.782708168029785,-0.22505496442317963,0.10295066982507706
1683474511215692300,7.3906923828125,9.770736694335938,-0.2322375625371933,0.10055647045373917
1683474511225299000,7.400298828125,9.78989028930664,-0.2322375625371933,0.090979665517807
1683474511235278000,7.410278076171875,9.782708168029785,-0.23942017555236816,0.10773907601833344
1683474511245287700,7.42028759765625,9.780313491821289,-0.2322375625371933,0.10773907601833344
1683474511255297500,7.430297607421875,9.797073364257812,-0.22744916379451752,0.10773907601833344
1683474511265277000,7.44027685546875,9.77791976928711,-0.22505496442317963,0.10055647045373917
1683474511275286800,7.450286865234375,9.780313491821289,-0.21547815203666687,0.10534487664699554
1683474511285296400,7.46029638671875,9.794678688049316,-0.22744916379451752,0.10773907601833344
1683474511295398000,7.47039794921875,9.775525093078613,-0.23942017555236816,0.10055647045373917
1683474511305285400,7.480285400390625,9.77791976928711,-0.2346317619085312,0.10534487664699554
1683474511315295200,7.490295166015625,9.785101890563965,-0.21547815203666687,0.10055647045373917
1683474511325274400,7.5002744140625,9.768342971801758,-0.22266076505184174,0.10295066982507706
1683474511335284200,7.5102841796875,9.782708168029785,-0.22505496442317963,0.0933738648891449
1683474511345294000,7.520294189453125,9.780313491821289,-0.22744916379451752,0.0933738648891449
1683474511355235800,7.53023583984375,9.787496566772461,-0.2298433631658554,0.10295066982507706
1683474511365245700,7.54024560546875,9.780313491821289,-0.22505496442317963,0.09816227108240128
1683474511375377400,7.55037744140625,9.785101890563965,-0.22266076505184174,0.10534487664699554
1683474511385234700,7.560234619140625,9.77791976928711,-0.22744916379451752,0.10773907601833344
1683474511395244500,7.57024462890625,9.765948295593262,-0.21787235140800476,0.09816227108240128
1683474511405254100,7.580254150390625,9.792284965515137,-0.22744916379451752,0.08379705995321274
1683474511415386000,7.59038623046875,9.775525093078613,-0.2322375625371933,0.09816227108240128
1683474511425243400,7.600243408203125,9.804255485534668,-0.23702596127986908,0.09576806426048279
1683474511435253000,7.6102529296875,9.768342971801758,-0.21308395266532898,0.09576806426048279
1683474511445232400,7.620232421875,9.768342971801758,-0.2106897532939911,0.10295066982507706
1683474511455242000,7.630241943359375,9.782708168029785,-0.22266076505184174,0.10534487664699554
1683474511465251800,7.640251953125,9.775525093078613,-0.2322375625371933,0.10534487664699554
1683474511475231000,7.65023095703125,9.780313491821289,-0.2346317619085312,0.09576806426048279
1683474511485240800,7.66024072265625,9.785101890563965,-0.23702596127986908,0.10055647045373917
1683474511495250400,7.67025048828125,9.799467086791992,-0.2106897532939911,0.11252748221158981
1683474511505260300,7.68026025390625,9.794678688049316,-0.24181437492370605,0.10534487664699554
1683474511515239700,7.69023974609375,9.768342971801758,-0.2322375625371933,0.11252748221158981
1683474511525249300,7.700249267578125,9.801861763000488,-0.2322375625371933,0.0933738648891449
1683474511535442200,7.710442138671875,9.799467086791992,-0.2106897532939911,0.10534487664699554
1683474511545238300,7.72023828125,9.775525093078613,-0.2082955539226532,0.09816227108240128
1683474511555248000,7.730248046875,9.787496566772461,-0.24660277366638184,0.0933738648891449
1683474511565257700,7.7402578125,9.77791976928711,-0.22026655077934265,0.10055647045373917
1683474511575237000,7.750237060546875,9.782708168029785,-0.2346317619085312,0.10055647045373917
1683474511585247000,7.7602470703125,9.792284965515137,-0.22505496442317963,0.10295066982507706
1683474511595256600,7.770256591796875,9.785101890563965,-0.2298433631658554,0.08619125932455063
1683474511605236000,7.780236083984375,9.785101890563965,-0.24181437492370605,0.10534487664699554
1683474511614966800,7.789966796875,9.787496566772461,-0.21787235140800476,0.10055647045373917
1683474511625255400,7.80025537109375,9.78989028930664,-0.2082955539226532,0.08619125932455063
1683474511635234800,7.81023486328125,9.782708168029785,-0.22505496442317963,0.10773907601833344
1683474511645244400,7.820244384765625,9.787496566772461,-0.22266076505184174,0.09576806426048279
1683474511655254300,7.830254150390625,9.785101890563965,-0.2513911724090576,0.10534487664699554
1683474511665233400,7.8402333984375,9.780313491821289,-0.22026655077934265,0.09816227108240128
1683474511675243300,7.8502431640625,9.768342971801758,-0.2082955539226532,0.09816227108240128
1683474511685252900,7.8602529296875,9.801861763000488,-0.2346317619085312,0.09576806426048279
1683474511694964500,7.869964599609375,9.794678688049316,-0.22505496442317963,0.10773907601833344
1683474511705242000,7.8802421875,9.773131370544434,-0.21547815203666687,0.1173158809542656
1683474511715251700,7.890251708984375,9.787496566772461,-0.21308395266532898,0.08619125932455063
1683474511725231000,7.900231201171875,9.780313491821289,-0.22266076505184174,0.08858546614646912
1683474511735241000,7.910240966796875,9.787496566772461,-0.22026655077934265,0.08619125932455063
1683474511745250600,7.92025048828125,9.77791976928711,-0.2082955539226532,0.10534487664699554
1683474511755260400,7.930260498046875,9.787496566772461,-0.21787235140800476,0.09816227108240128
1683474511765239600,7.940239501953125,9.770736694335938,-0.2298433631658554,0.07900865375995636
1683474511775463000,7.950462890625,9.77791976928711,-0.2298433631658554,0.09816227108240128
1683474511785259000,7.960259033203125,9.81143856048584,-0.22505496442317963,0.1149216815829277
1683474511795238400,7.97023828125,9.787496566772461,-0.23702596127986908,0.09816227108240128
1683474511805248000,7.980248046875,9.794678688049316,-0.2298433631658554,0.09576806426048279
1683474511815257900,7.9902578125,9.792284965515137,-0.21547815203666687,0.1173158809542656
1683474511825237200,8.0002373046875,9.782708168029785,-0.22505496442317963,0.12210428714752197
1683474511835247000,8.0102470703125,9.787496566772461,-0.22266076505184174,0.10773907601833344
1683474511845256700,8.020256591796874,9.782708168029785,-0.24420857429504395,0.09576806426048279
1683474511855235800,8.03023583984375,9.77791976928711,-0.21787235140800476,0.10534487664699554
1683474511865245700,8.04024560546875,9.780313491821289,-0.22266076505184174,0.11252748221158981
1683474511875255300,8.05025537109375,9.782708168029785,-0.2322375625371933,0.11252748221158981
1683474511885234700,8.060234619140624,9.787496566772461,-0.21547815203666687,0.09816227108240128
1683474511894846200,8.06984619140625,9.770736694335938,-0.22505496442317963,0.11252748221158981
1683474511905254100,8.080254150390624,9.780313491821289,-0.24181437492370605,0.10055647045373917
1683474511915233500,8.090233642578125,9.77791976928711,-0.22026655077934265,0.09576806426048279
1683474511925243400,8.100243408203125,9.763554573059082,-0.23942017555236816,0.10295066982507706
1683474511935253000,8.1102529296875,9.785101890563965,-0.2346317619085312,0.10055647045373917
1683474511945232400,8.120232421875,9.782708168029785,-0.22266076505184174,0.10534487664699554
1683474511955242000,8.130241943359374,9.787496566772461,-0.2346317619085312,0.09576806426048279
1683474511965251800,8.140251953125,9.792284965515137,-0.2322375625371933,0.0933738648891449
1683474511975322600,8.150322509765624,9.78989028930664,-0.21547815203666687,0.11013327538967133
1683474511985240800,8.16024072265625,9.794678688049316,-0.22744916379451752,0.08858546614646912
1683474511995250400,8.17025048828125,9.785101890563965,-0.21547815203666687,0.08858546614646912
1683474512005260300,8.18026025390625,9.773131370544434,-0.2106897532939911,0.090979665517807
1683474512015239700,8.19023974609375,9.775525093078613,-0.24181437492370605,0.11252748221158981
1683474512025249300,8.200249267578124,9.775525093078613,-0.2298433631658554,0.10773907601833344
1683474512035259100,8.210259033203124,9.773131370544434,-0.2346317619085312,0.090979665517807
1683474512045238300,8.22023828125,9.785101890563965,-0.22505496442317963,0.09576806426048279
1683474512055248100,8.230248046875,9.78989028930664,-0.23942017555236816,0.09816227108240128
1683474512065257700,8.2402578125,9.77791976928711,-0.22505496442317963,0.09816227108240128
1683474512075237000,8.250237060546874,9.780313491821289,-0.23702596127986908,0.10534487664699554
1683474512085247000,8.2602470703125,9.775525093078613,-0.23942017555236816,0.10295066982507706
1683474512095256600,8.270256591796874,9.77791976928711,-0.23702596127986908,0.11013327538967133
1683474512105236000,8.280236083984375,9.770736694335938,-0.22505496442317963,0.10534487664699554
1683474512115245800,8.290245849609375,9.782708168029785,-0.2346317619085312,0.11013327538967133
1683474512125255400,8.30025537109375,9.785101890563965,-0.21787235140800476,0.0933738648891449
1683474512135831000,8.3108310546875,9.782708168029785,-0.22266076505184174,0.090979665517807
1683474512155254300,8.330254150390624,9.78989028930664,-0.2298433631658554,0.07661445438861847
1683474512165233400,8.3402333984375,9.773131370544434,-0.22505496442317963,0.09576806426048279
1683474512175243300,8.3502431640625,9.78989028930664,-0.23942017555236816,0.08619125932455063
1683474512185252900,8.3602529296875,9.775525093078613,-0.21787235140800476,0.10055647045373917
1683474512195232300,8.370232177734374,9.761159896850586,-0.2059013396501541,0.08858546614646912
1683474512205242000,8.3802421875,9.768342971801758,-0.23702596127986908,0.09816227108240128
1683474512214919400,8.38991943359375,9.773131370544434,-0.2346317619085312,0.09576806426048279
1683474512225261600,8.400261474609374,9.782708168029785,-0.21308395266532898,0.11252748221158981
1683474512235241000,8.410240966796875,9.773131370544434,-0.22505496442317963,0.10295066982507706
1683474512245250600,8.42025048828125,9.787496566772461,-0.23702596127986908,0.09816227108240128
1683474512255260400,8.430260498046875,9.785101890563965,-0.2298433631658554,0.09816227108240128
1683474512265239600,8.440239501953124,9.792284965515137,-0.21308395266532898,0.10055647045373917
1683474512275249400,8.45024951171875,9.782708168029785,-0.22266076505184174,0.10055647045373917
1683474512285259000,8.460259033203124,9.787496566772461,-0.22266076505184174,0.10773907601833344
1683474512295738600,8.470738525390624,9.770736694335938,-0.21308395266532898,0.10295066982507706
1683474512305248000,8.480248046875,9.785101890563965,-0.2298433631658554,0.10295066982507706
1683474512315257900,8.4902578125,9.78989028930664,-0.2346317619085312,0.10534487664699554
1683474512325237200,8.5002373046875,9.780313491821289,-0.22505496442317963,0.08858546614646912
1683474512335247000,8.5102470703125,9.75637149810791,-0.22505496442317963,0.10055647045373917
1683474512345256700,8.520256591796874,9.787496566772461,-0.21308395266532898,0.10773907601833344
1683474512355235800,8.53023583984375,9.794678688049316,-0.21787235140800476,0.13407529890537262
1683474512365245700,8.54024560546875,9.782708168029785,-0.22026655077934265,0.10295066982507706
1683474512375255300,8.55025537109375,9.77791976928711,-0.22266076505184174,0.09816227108240128
1683474512385234700,8.560234619140624,9.787496566772461,-0.2346317619085312,0.10295066982507706
1683474512395244500,8.57024462890625,9.787496566772461,-0.2346317619085312,0.1149216815829277
1683474512405254100,8.580254150390624,9.775525093078613,-0.22266076505184174,0.09576806426048279
1683474512415233500,8.590233642578125,9.765948295593262,-0.21547815203666687,0.10534487664699554
1683474512425243400,8.600243408203125,9.780313491821289,-0.2298433631658554,0.0933738648891449
1683474512435253000,8.6102529296875,9.782708168029785,-0.22026655077934265,0.10534487664699554
1683474512445232400,8.620232421875,9.794678688049316,-0.21547815203666687,0.10295066982507706
1683474512455242000,8.630241943359374,9.785101890563965,-0.21787235140800476,0.09816227108240128
1683474512465251800,8.640251953125,9.782708168029785,-0.23702596127986908,0.09576806426048279
1683474512475231000,8.65023095703125,9.792284965515137,-0.2346317619085312,0.0933738648891449
1683474512485240800,8.66024072265625,9.782708168029785,-0.2059013396501541,0.10534487664699554
1683474512495250400,8.67025048828125,9.792284965515137,-0.2298433631658554,0.10295066982507706
1683474512505260300,8.68026025390625,9.77791976928711,-0.22026655077934265,0.08619125932455063
1683474512515239700,8.69023974609375,9.780313491821289,-0.2082955539226532,0.10534487664699554
1683474512525249300,8.700249267578124,9.785101890563965,-0.22266076505184174,0.10295066982507706
1683474512535259100,8.710259033203124,9.77791976928711,-0.2346317619085312,0.10295066982507706
1683474512545238300,8.72023828125,9.770736694335938,-0.23942017555236816,0.09576806426048279
1683474512555248000,8.730248046875,9.785101890563965,-0.23942017555236816,0.10295066982507706
1683474512565257700,8.7402578125,9.787496566772461,-0.22505496442317963,0.11013327538967133
1683474512575298000,8.750298095703124,9.782708168029785,-0.22266076505184174,0.090979665517807
1683474512585247000,8.7602470703125,9.78989028930664,-0.22744916379451752,0.0933738648891449
1683474512595256600,8.770256591796874,9.792284965515137,-0.2298433631658554,0.10055647045373917
1683474512605236000,8.780236083984375,9.78989028930664,-0.22505496442317963,0.11252748221158981
1683474512615077600,8.79007763671875,9.782708168029785,-0.22266076505184174,0.11013327538967133
1683474512625255400,8.80025537109375,9.785101890563965,-0.2106897532939911,0.10773907601833344
1683474512635234800,8.81023486328125,9.792284965515137,-0.2298433631658554,0.10295066982507706
1683474512645244700,8.82024462890625,9.782708168029785,-0.22026655077934265,0.11252748221158981
1683474512655254300,8.830254150390624,9.775525093078613,-0.2298433631658554,0.10773907601833344
1683474512665233400,8.8402333984375,9.792284965515137,-0.2298433631658554,0.11013327538967133
1683474512675243300,8.8502431640625,9.792284965515137,-0.2298433631658554,0.09576806426048279
1683474512685252900,8.8602529296875,9.77791976928711,-0.22505496442317963,0.09816227108240128
1683474512695415300,8.870415283203124,9.78989028930664,-0.22744916379451752,0.09816227108240128
1683474512705242000,8.8802421875,9.775525093078613,-0.2346317619085312,0.090979665517807
1683474512715251700,8.890251708984374,9.780313491821289,-0.2346317619085312,0.11013327538967133
1683474512725231000,8.900231201171875,9.794678688049316,-0.22505496442317963,0.10295066982507706
1683474512735362800,8.91036279296875,9.775525093078613,-0.22266076505184174,0.10773907601833344
1683474512745250600,8.92025048828125,9.799467086791992,-0.2322375625371933,0.10055647045373917
1683474512755260400,8.930260498046875,9.78989028930664,-0.20350714027881622,0.10055647045373917
1683474512765239600,8.940239501953124,9.780313491821289,-0.23942017555236816,0.10534487664699554
1683474512775249400,8.95024951171875,9.782708168029785,-0.2346317619085312,0.10055647045373917
1683474512785259000,8.960259033203124,9.785101890563965,-0.22266076505184174,0.09816227108240128
1683474512795238400,8.97023828125,9.785101890563965,-0.22505496442317963,0.10534487664699554
1683474512805248000,8.980248046875,9.780313491821289,-0.22505496442317963,0.10295066982507706
1683474512815257900,8.9902578125,9.799467086791992,-0.23702596127986908,0.10295066982507706
1683474512825237200,9.0002373046875,9.785101890563965,-0.23942017555236816,0.09576806426048279
1683474512835247000,9.0102470703125,9.792284965515137,-0.2322375625371933,0.1149216815829277
1683474512845256700,9.020256591796874,9.773131370544434,-0.22266076505184174,0.09816227108240128
1683474512855235800,9.03023583984375,9.782708168029785,-0.2298433631658554,0.11252748221158981
1683474512865245700,9.04024560546875,9.787496566772461,-0.2322375625371933,0.09576806426048279
1683474512875255300,9.05025537109375,9.787496566772461,-0.2298433631658554,0.10534487664699554
1683474512885234700,9.060234619140624,9.806650161743164,-0.2298433631658554,0.1149216815829277
1683474512895366400,9.070366455078124,9.792284965515137,-0.2322375625371933,0.10534487664699554
1683474512905254100,9.080254150390624,9.78989028930664,-0.22744916379451752,0.10055647045373917
1683474512915233500,9.090233642578125,9.78989028930664,-0.22266076505184174,0.10534487664699554
1683474512925243400,9.100243408203125,9.782708168029785,-0.2346317619085312,0.09576806426048279
1683474512935253000,9.1102529296875,9.785101890563965,-0.2322375625371933,0.11013327538967133
1683474512945232400,9.120232421875,9.77791976928711,-0.2106897532939911,0.09816227108240128
1683474512955242000,9.130241943359374,9.794678688049316,-0.22266076505184174,0.09576806426048279
1683474512965251800,9.140251953125,9.782708168029785,-0.2346317619085312,0.10055647045373917
1683474512975231000,9.15023095703125,9.806650161743164,-0.22744916379451752,0.09816227108240128
1683474512985240800,9.16024072265625,9.785101890563965,-0.23942017555236816,0.1149216815829277
1683474512995250400,9.17025048828125,9.816226959228516,-0.2322375625371933,0.10295066982507706
1683474513005260300,9.18026025390625,9.794678688049316,-0.24420857429504395,0.0933738648891449
1683474513015239700,9.19023974609375,9.792284965515137,-0.2298433631658554,0.11252748221158981
1683474513025249300,9.200249267578124,9.763554573059082,-0.22505496442317963,0.10773907601833344
1683474513035259100,9.210259033203124,9.77791976928711,-0.22266076505184174,0.09576806426048279
1683474513045238300,9.22023828125,9.775525093078613,-0.22505496442317963,0.10773907601833344
1683474513055248100,9.230248046875,9.785101890563965,-0.23702596127986908,0.11252748221158981
1683474513065257700,9.2402578125,9.78989028930664,-0.22266076505184174,0.090979665517807
1683474513075237000,9.250237060546874,9.782708168029785,-0.22026655077934265,0.08619125932455063
1683474513085247000,9.2602470703125,9.787496566772461,-0.2298433631658554,0.11252748221158981
1683474513095287300,9.270287353515625,9.765948295593262,-0.21787235140800476,0.10534487664699554
1683474513105236000,9.280236083984375,9.797073364257812,-0.2298433631658554,0.10295066982507706
1683474513115245800,9.290245849609375,9.794678688049316,-0.23942017555236816,0.11013327538967133
1683474513125255400,9.30025537109375,9.782708168029785,-0.22744916379451752,0.12449848651885986
1683474513134859500,9.309859619140624,9.775525093078613,-0.2322375625371933,0.090979665517807
1683474513145244700,9.32024462890625,9.792284965515137,-0.22266076505184174,0.0933738648891449
1683474513155254300,9.330254150390624,9.770736694335938,-0.21308395266532898,0.11252748221158981
1683474513165233400,9.3402333984375,9.77791976928711,-0.23702596127986908,0.090979665517807
1683474513175426300,9.35042626953125,9.770736694335938,-0.21308395266532898,0.10773907601833344
1683474513185252900,9.3602529296875,9.782708168029785,-0.2322375625371933,0.10295066982507706
1683474513195232300,9.370232177734374,9.794678688049316,-0.21787235140800476,0.10295066982507706
1683474513205242000,9.3802421875,9.785101890563965,-0.2298433631658554,0.08858546614646912
1683474513215251700,9.390251708984374,9.785101890563965,-0.2298433631658554,0.08140286058187485
1683474513225231000,9.400231201171875,9.780313491821289,-0.22744916379451752,0.09816227108240128
1683474513235241000,9.410240966796875,9.775525093078613,-0.22744916379451752,0.10055647045373917
1683474513245250600,9.42025048828125,9.78989028930664,-0.22026655077934265,0.09816227108240128
1683474513255260400,9.430260498046875,9.773131370544434,-0.22744916379451752,0.0933738648891449
1683474513265239600,9.440239501953124,9.797073364257812,-0.22026655077934265,0.10773907601833344
1683474513275249400,9.45024951171875,9.782708168029785,-0.22266076505184174,0.10055647045373917
1683474513285259000,9.460259033203124,9.773131370544434,-0.22266076505184174,0.07661445438861847
1683474513295238400,9.47023828125,9.773131370544434,-0.21547815203666687,0.0933738648891449
1683474513305248000,9.480248046875,9.775525093078613,-0.22744916379451752,0.0933738648891449
1683474513315257900,9.4902578125,9.782708168029785,-0.22744916379451752,0.0933738648891449
1683474513325237200,9.5002373046875,9.780313491821289,-0.2322375625371933,0.10295066982507706
1683474513335247000,9.5102470703125,9.75397777557373,-0.2346317619085312,0.0933738648891449
1683474513345256700,9.520256591796874,9.773131370544434,-0.22266076505184174,0.11252748221158981
1683474513355235800,9.53023583984375,9.782708168029785,-0.2298433631658554,0.09816227108240128
1683474513365245700,9.54024560546875,9.785101890563965,-0.21787235140800476,0.11013327538967133
1683474513375255300,9.55025537109375,9.763554573059082,-0.18914192914962769,0.10534487664699554
1683474513385234700,9.560234619140624,9.763554573059082,-0.2322375625371933,0.11013327538967133
1683474513395244500,9.57024462890625,9.782708168029785,-0.22026655077934265,0.08619125932455063
1683474513405254100,9.580254150390624,9.797073364257812,-0.22266076505184174,0.09816227108240128
1683474513414961200,9.589961181640625,9.770736694335938,-0.23942017555236816,0.10534487664699554
1683474513425243400,9.600243408203125,9.782708168029785,-0.2106897532939911,0.10773907601833344
1683474513435253000,9.6102529296875,9.785101890563965,-0.21787235140800476,0.10534487664699554
1683474513445232400,9.620232421875,9.787496566772461,-0.22505496442317963,0.10295066982507706
1683474513455242000,9.630241943359374,9.782708168029785,-0.2322375625371933,0.10055647045373917
1683474513465251800,9.640251953125,9.773131370544434,-0.22505496442317963,0.10773907601833344
1683474513475231000,9.65023095703125,9.780313491821289,-0.21787235140800476,0.0933738648891449
1683474513485240800,9.66024072265625,9.78989028930664,-0.23702596127986908,0.10055647045373917
1683474513495250400,9.67025048828125,9.758766174316406,-0.24181437492370605,0.0933738648891449
1683474513505260300,9.68026025390625,9.770736694335938,-0.2106897532939911,0.09576806426048279
1683474513515239700,9.69023974609375,9.785101890563965,-0.22266076505184174,0.10534487664699554
1683474513525249300,9.700249267578124,9.78989028930664,-0.23942017555236816,0.10055647045373917
1683474513535259100,9.710259033203124,9.780313491821289,-0.23702596127986908,0.1149216815829277
1683474513545238300,9.72023828125,9.78989028930664,-0.2346317619085312,0.11252748221158981
1683474513555248000,9.730248046875,9.792284965515137,-0.21787235140800476,0.09816227108240128
1683474513565257700,9.7402578125,9.768342971801758,-0.24660277366638184,0.10055647045373917
1683474513575237000,9.750237060546874,9.78989028930664,-0.22505496442317963,0.10055647045373917
1683474513585247000,9.7602470703125,9.787496566772461,-0.2298433631658554,0.09816227108240128
1683474513595256600,9.770256591796874,9.78989028930664,-0.2106897532939911,0.11013327538967133
1683474513605236000,9.780236083984375,9.782708168029785,-0.22026655077934265,0.10295066982507706
1683474513615459300,9.790459228515624,9.775525093078613,-0.21787235140800476,0.09576806426048279
1683474513625255400,9.80025537109375,9.785101890563965,-0.2322375625371933,0.08858546614646912
1683474513635234800,9.81023486328125,9.782708168029785,-0.2298433631658554,0.10295066982507706
1683474513645244700,9.82024462890625,9.797073364257812,-0.2298433631658554,0.09576806426048279
1683474513655654100,9.830654052734374,9.780313491821289,-0.22505496442317963,0.07900865375995636
1683474513665264000,9.84026416015625,9.785101890563965,-0.2346317619085312,0.11252748221158981
1683474513675243300,9.8502431640625,9.782708168029785,-0.22026655077934265,0.09816227108240128
1683474513685252900,9.8602529296875,9.782708168029785,-0.22266076505184174,0.090979665517807
1683474513695232300,9.870232177734374,9.792284965515137,-0.23702596127986908,0.08619125932455063
1683474513705242000,9.8802421875,9.787496566772461,-0.21547815203666687,0.09576806426048279
1683474513715251700,9.890251708984374,9.780313491821289,-0.23942017555236816,0.10295066982507706
1683474513725231000,9.900231201171875,9.794678688049316,-0.22505496442317963,0.0933738648891449
1683474513735241000,9.910240966796875,9.775525093078613,-0.23702596127986908,0.10295066982507706
1683474513745250600,9.92025048828125,9.768342971801758,-0.2298433631658554,0.10295066982507706
1683474513755260400,9.930260498046875,9.787496566772461,-0.23702596127986908,0.07661445438861847
1683474513765239600,9.940239501953124,9.780313491821289,-0.2298433631658554,0.11013327538967133
1683474513775249400,9.95024951171875,9.785101890563965,-0.2346317619085312,0.090979665517807
1683474513785259000,9.960259033203124,9.782708168029785,-0.21787235140800476,0.11252748221158981
1683474513795238400,9.97023828125,9.77791976928711,-0.23942017555236816,0.08858546614646912
1683474513805248000,9.980248046875,9.797073364257812,-0.22026655077934265,0.11252748221158981
1683474513815257900,9.9902578125,9.77791976928711,-0.22744916379451752,0.11013327538967133
1683474513825237200,10.0002373046875,9.773131370544434,-0.2322375625371933,0.08858546614646912
1683474513835247000,10.0102470703125,9.785101890563965,-0.2346317619085312,0.1149216815829277
1683474513845256700,10.020256591796874,9.801861763000488,-0.21308395266532898,0.11013327538967133
1683474513855235800,10.03023583984375,9.780313491821289,-0.22026655077934265,0.11013327538967133
1683474513865245700,10.04024560546875,9.792284965515137,-0.23942017555236816,0.09576806426048279
1683474513875255300,10.05025537109375,9.792284965515137,-0.21308395266532898,0.10534487664699554
1683474513885234700,10.060234619140624,9.773131370544434,-0.2298433631658554,0.10295066982507706
1683474513895244500,10.07024462890625,9.775525093078613,-0.2298433631658554,0.10773907601833344
1683474513905254100,10.080254150390624,9.792284965515137,-0.22026655077934265,0.11013327538967133
1683474513915233500,10.090233642578125,9.780313491821289,-0.22266076505184174,0.10534487664699554
1683474513925243400,10.100243408203125,9.773131370544434,-0.2322375625371933,0.1149216815829277
1683474513935667200,10.110667236328124,9.775525093078613,-0.22505496442317963,0.11252748221158981
1683474513945262800,10.120262939453125,9.782708168029785,-0.22026655077934265,0.08619125932455063
1683474513955242000,10.130241943359374,9.768342971801758,-0.22266076505184174,0.10295066982507706
1683474513965251800,10.140251953125,9.794678688049316,-0.2346317619085312,0.09576806426048279
1683474513975231000,10.15023095703125,9.782708168029785,-0.22026655077934265,0.0933738648891449
1683474513985240800,10.16024072265625,9.787496566772461,-0.2298433631658554,0.10055647045373917
1683474513995250400,10.17025048828125,9.77791976928711,-0.23702596127986908,0.10295066982507706
1683474514005260300,10.18026025390625,9.797073364257812,-0.22744916379451752,0.10295066982507706
1683474514015239700,10.19023974609375,9.770736694335938,-0.22744916379451752,0.10773907601833344
1683474514025249300,10.200249267578124,9.773131370544434,-0.23702596127986908,0.10295066982507706
1683474514035259100,10.210259033203124,9.785101890563965,-0.22266076505184174,0.09576806426048279
1683474514045238300,10.22023828125,9.806650161743164,-0.2298433631658554,0.0933738648891449
1683474514055248100,10.230248046875,9.799467086791992,-0.19871874153614044,0.10055647045373917
1683474514065258000,10.240258056640625,9.792284965515137,-0.22505496442317963,0.0933738648891449
1683474514075237000,10.250237060546874,9.77791976928711,-0.22026655077934265,0.10295066982507706
1683474514085247000,10.2602470703125,9.794678688049316,-0.24660277366638184,0.10295066982507706
1683474514095256600,10.270256591796874,9.77791976928711,-0.22505496442317963,0.10534487664699554
1683474514105236000,10.280236083984375,9.797073364257812,-0.21308395266532898,0.08858546614646912
1683474514115245800,10.290245849609375,9.794678688049316,-0.2322375625371933,0.10295066982507706
1683474514125255400,10.30025537109375,9.799467086791992,-0.22505496442317963,0.0933738648891449
1683474514135234800,10.31023486328125,9.792284965515137,-0.22744916379451752,0.09576806426048279
1683474514145244700,10.32024462890625,9.770736694335938,-0.2322375625371933,0.09816227108240128
1683474514155254300,10.330254150390624,9.794678688049316,-0.2298433631658554,0.10055647045373917
1683474514165233400,10.3402333984375,9.797073364257812,-0.22505496442317963,0.08619125932455063
1683474514175243300,10.3502431640625,9.773131370544434,-0.2346317619085312,0.0933738648891449
1683474514185252900,10.3602529296875,9.782708168029785,-0.22026655077934265,0.10534487664699554
1683474514195232300,10.370232177734374,9.78989028930664,-0.22026655077934265,0.0933738648891449
1683474514205242000,10.3802421875,9.768342971801758,-0.24660277366638184,0.08619125932455063
1683474514215251700,10.390251708984374,9.794678688049316,-0.22744916379451752,0.10295066982507706
1683474514225231000,10.400231201171875,9.78989028930664,-0.2106897532939911,0.09816227108240128
1683474514235241000,10.410240966796875,9.782708168029785,-0.22744916379451752,0.090979665517807
1683474514245250600,10.42025048828125,9.77791976928711,-0.22266076505184174,0.0933738648891449
1683474514255260400,10.430260498046875,9.785101890563965,-0.22266076505184174,0.090979665517807
1683474514265239600,10.440239501953124,9.78989028930664,-0.2346317619085312,0.10773907601833344
1683474514275249400,10.45024951171875,9.77791976928711,-0.21787235140800476,0.10295066982507706
1683474514285259000,10.460259033203124,9.785101890563965,-0.2322375625371933,0.10295066982507706
1683474514295238400,10.47023828125,9.782708168029785,-0.22026655077934265,0.09816227108240128
1683474514305248000,10.480248046875,9.794678688049316,-0.22744916379451752,0.09816227108240128
1683474514315257900,10.4902578125,9.799467086791992,-0.23702596127986908,0.10534487664699554
1683474514325237200,10.5002373046875,9.77791976928711,-0.22744916379451752,0.10055647045373917
1683474514335247000,10.5102470703125,9.797073364257812,-0.2322375625371933,0.11013327538967133
1683474514345256700,10.520256591796874,9.780313491821289,-0.22505496442317963,0.09816227108240128
1683474514355235800,10.53023583984375,9.770736694335938,-0.22744916379451752,0.11013327538967133
1683474514365245700,10.54024560546875,9.780313491821289,-0.21547815203666687,0.090979665517807
1683474514375255300,10.55025537109375,9.78989028930664,-0.22744916379451752,0.11252748221158981
1683474514385234700,10.560234619140624,9.775525093078613,-0.2298433631658554,0.10534487664699554
1683474514395244500,10.57024462890625,9.787496566772461,-0.2322375625371933,0.10055647045373917
1683474514405254100,10.580254150390624,9.77791976928711,-0.22026655077934265,0.09576806426048279
1683474514415233500,10.590233642578125,9.792284965515137,-0.24181437492370605,0.10295066982507706
1683474514425243400,10.600243408203125,9.773131370544434,-0.2298433631658554,0.10295066982507706
1683474514435253000,10.6102529296875,9.782708168029785,-0.21308395266532898,0.09816227108240128
1683474514445232400,10.620232421875,9.782708168029785,-0.21787235140800476,0.10295066982507706
1683474514455242000,10.630241943359374,9.797073364257812,-0.2082955539226532,0.10055647045373917
1683474514465251800,10.640251953125,9.770736694335938,-0.2322375625371933,0.10534487664699554
1683474514475231000,10.65023095703125,9.775525093078613,-0.22266076505184174,0.09576806426048279
1683474514485240800,10.66024072265625,9.78989028930664,-0.21547815203666687,0.11252748221158981
1683474514495403000,10.670403076171874,9.780313491821289,-0.22266076505184174,0.1173158809542656
1683474514505260300,10.68026025390625,9.785101890563965,-0.22505496442317963,0.09816227108240128
1683474514515239700,10.69023974609375,9.78989028930664,-0.22266076505184174,0.11013327538967133
1683474514525249300,10.700249267578124,9.780313491821289,-0.2106897532939911,0.11252748221158981
1683474514535350800,10.710350830078125,9.780313491821289,-0.22744916379451752,0.09576806426048279
1683474514545238300,10.72023828125,9.765948295593262,-0.2298433631658554,0.11252748221158981
1683474514555248000,10.730248046875,9.792284965515137,-0.23702596127986908,0.0933738648891449
1683474514565258000,10.740258056640625,9.785101890563965,-0.2298433631658554,0.09576806426048279
1683474514575237000,10.750237060546874,9.770736694335938,-0.21787235140800476,0.090979665517807
1683474514585247000,10.7602470703125,9.787496566772461,-0.2322375625371933,0.10773907601833344
1683474514595256600,10.770256591796874,9.773131370544434,-0.23702596127986908,0.10773907601833344
1683474514605236000,10.780236083984375,9.782708168029785,-0.24420857429504395,0.10534487664699554
1683474514615245800,10.790245849609375,9.782708168029785,-0.22026655077934265,0.09816227108240128
1683474514625255400,10.80025537109375,9.773131370544434,-0.2346317619085312,0.08379705995321274
1683474514635234800,10.81023486328125,9.78989028930664,-0.22266076505184174,0.11013327538967133
1683474514645244700,10.82024462890625,9.780313491821289,-0.22744916379451752,0.0933738648891449
1683474514655284700,10.83028466796875,9.768342971801758,-0.2082955539226532,0.11971008777618408
1683474514665233400,10.8402333984375,9.77791976928711,-0.21787235140800476,0.090979665517807
1683474514675243300,10.8502431640625,9.78989028930664,-0.22744916379451752,0.08858546614646912
1683474514685252900,10.8602529296875,9.785101890563965,-0.23942017555236816,0.1149216815829277
1683474514695232300,10.870232177734374,9.78989028930664,-0.22026655077934265,0.0933738648891449
1683474514705242000,10.8802421875,9.792284965515137,-0.2322375625371933,0.10534487664699554
1683474514715251700,10.890251708984374,9.770736694335938,-0.2298433631658554,0.10534487664699554
1683474514725231000,10.900231201171875,9.785101890563965,-0.22026655077934265,0.10055647045373917
1683474514735241000,10.910240966796875,9.780313491821289,-0.2322375625371933,0.09576806426048279
1683474514745250600,10.92025048828125,9.801861763000488,-0.22744916379451752,0.10055647045373917
1683474514755260400,10.930260498046875,9.768342971801758,-0.2298433631658554,0.10534487664699554
1683474514765239600,10.940239501953124,9.787496566772461,-0.20111294090747833,0.1149216815829277
1683474514775249400,10.95024951171875,9.787496566772461,-0.21547815203666687,0.10295066982507706
1683474514785259000,10.960259033203124,9.797073364257812,-0.22266076505184174,0.09816227108240128
1683474514795238400,10.97023828125,9.770736694335938,-0.22744916379451752,0.0933738648891449
1683474514805248000,10.980248046875,9.77791976928711,-0.22505496442317963,0.10773907601833344
1683474514815257900,10.9902578125,9.77791976928711,-0.2298433631658554,0.09576806426048279
1683474514825237200,11.0002373046875,9.78989028930664,-0.22505496442317963,0.10055647045373917
1683474514835247000,11.0102470703125,9.785101890563965,-0.23942017555236816,0.10773907601833344
1683474514845256700,11.020256591796874,9.792284965515137,-0.22744916379451752,0.09576806426048279
1683474514855235800,11.03023583984375,9.77791976928711,-0.2106897532939911,0.10295066982507706
1683474514865245700,11.04024560546875,9.773131370544434,-0.22505496442317963,0.10055647045373917
1683474514875255300,11.05025537109375,9.787496566772461,-0.2346317619085312,0.10773907601833344
1683474514885234700,11.060234619140624,9.775525093078613,-0.22266076505184174,0.10295066982507706
1683474514895660000,11.070659912109376,9.787496566772461,-0.22505496442317963,0.10055647045373917
1683474514905254100,11.080254150390624,9.787496566772461,-0.21308395266532898,0.11013327538967133
1683474514915233500,11.090233642578125,9.77791976928711,-0.24420857429504395,0.08379705995321274
1683474514925243400,11.100243408203125,9.782708168029785,-0.22026655077934265,0.10773907601833344
1683474514935375000,11.110375,9.780313491821289,-0.24181437492370605,0.0933738648891449
1683474514945232400,11.120232421875,9.785101890563965,-0.2322375625371933,0.10534487664699554
1683474514955242000,11.130241943359374,9.804255485534668,-0.22505496442317963,0.10295066982507706
1683474514965251800,11.140251953125,9.775525093078613,-0.2298433631658554,0.09816227108240128
1683474514975231000,11.15023095703125,9.775525093078613,-0.2298433631658554,0.09816227108240128
1683474514985240800,11.16024072265625,9.77791976928711,-0.22026655077934265,0.09816227108240128
1683474514995250400,11.17025048828125,9.78989028930664,-0.23942017555236816,0.10773907601833344
1683474515005260300,11.18026025390625,9.797073364257812,-0.22744916379451752,0.09576806426048279
1683474515014883000,11.189883056640625,9.773131370544434,-0.2106897532939911,0.09576806426048279
1683474515025249300,11.200249267578124,9.768342971801758,-0.19393034279346466,0.10055647045373917
1683474515035259100,11.210259033203124,9.797073364257812,-0.22026655077934265,0.090979665517807
1683474515045238300,11.22023828125,9.797073364257812,-0.22744916379451752,0.0933738648891449
1683474515055248100,11.230248046875,9.782708168029785,-0.22266076505184174,0.090979665517807
1683474515065258000,11.240258056640625,9.773131370544434,-0.22026655077934265,0.0933738648891449
1683474515075237000,11.250237060546874,9.785101890563965,-0.22744916379451752,0.10773907601833344
1683474515085247000,11.2602470703125,9.775525093078613,-0.24660277366638184,0.10534487664699554
1683474515095256600,11.270256591796874,9.78989028930664,-0.22266076505184174,0.11252748221158981
1683474515105236000,11.280236083984375,9.794678688049316,-0.23942017555236816,0.09816227108240128
1683474515115245800,11.290245849609375,9.804255485534668,-0.23702596127986908,0.09576806426048279
1683474515125255400,11.30025537109375,9.775525093078613,-0.22266076505184174,0.08619125932455063
1683474515135448300,11.3104482421875,9.792284965515137,-0.22505496442317963,0.11013327538967133
1683474515145244700,11.32024462890625,9.782708168029785,-0.2298433631658554,0.10773907601833344
1683474515155254300,11.330254150390624,9.77791976928711,-0.2346317619085312,0.0933738648891449
1683474515165233400,11.3402333984375,9.780313491821289,-0.2322375625371933,0.10773907601833344
1683474515175243300,11.3502431640625,9.785101890563965,-0.23702596127986908,0.10534487664699554
1683474515185252900,11.3602529296875,9.782708168029785,-0.23702596127986908,0.10534487664699554
1683474515195232300,11.370232177734374,9.792284965515137,-0.22505496442317963,0.09816227108240128
1683474515205242000,11.3802421875,9.794678688049316,-0.22026655077934265,0.10055647045373917
1683474515215465500,11.390465576171875,9.794678688049316,-0.2082955539226532,0.0933738648891449
1683474515225231000,11.400231201171875,9.773131370544434,-0.21308395266532898,0.10295066982507706
1683474515235241000,11.410240966796875,9.785101890563965,-0.21547815203666687,0.09816227108240128
1683474515245250600,11.42025048828125,9.792284965515137,-0.2298433631658554,0.09576806426048279
1683474515255260400,11.430260498046875,9.763554573059082,-0.22505496442317963,0.11252748221158981
1683474515265239600,11.440239501953124,9.785101890563965,-0.23942017555236816,0.0933738648891449
1683474515275249400,11.45024951171875,9.775525093078613,-0.22266076505184174,0.09576806426048279
1683474515285259000,11.460259033203124,9.775525093078613,-0.22744916379451752,0.10295066982507706
1683474515295238400,11.47023828125,9.785101890563965,-0.22744916379451752,0.09816227108240128
1683474515305248000,11.480248046875,9.78989028930664,-0.2322375625371933,0.1149216815829277
1683474515315257900,11.4902578125,9.775525093078613,-0.23702596127986908,0.10295066982507706
1683474515325237200,11.5002373046875,9.78989028930664,-0.22505496442317963,0.09816227108240128
1683474515335247000,11.5102470703125,9.775525093078613,-0.21787235140800476,0.09576806426048279
1683474515345256700,11.520256591796874,9.804255485534668,-0.22744916379451752,0.09816227108240128
1683474515355235800,11.53023583984375,9.797073364257812,-0.23942017555236816,0.090979665517807
1683474515365245700,11.54024560546875,9.785101890563965,-0.23702596127986908,0.10295066982507706
1683474515375255300,11.55025537109375,9.768342971801758,-0.22026655077934265,0.10055647045373917
1683474515385234700,11.560234619140624,9.77791976928711,-0.2298433631658554,0.10055647045373917
1683474515395244500,11.57024462890625,9.770736694335938,-0.23942017555236816,0.10534487664699554
1683474515405254100,11.580254150390624,9.77791976928711,-0.22744916379451752,0.11252748221158981
1683474515415233500,11.590233642578125,9.773131370544434,-0.2322375625371933,0.11013327538967133
1683474515425243400,11.600243408203125,9.773131370544434,-0.23702596127986908,0.10055647045373917
1683474515435253000,11.6102529296875,9.799467086791992,-0.22266076505184174,0.11013327538967133
1683474515445232400,11.620232421875,9.78989028930664,-0.2059013396501541,0.10055647045373917
1683474515455242000,11.630241943359374,9.785101890563965,-0.22744916379451752,0.090979665517807
1683474515465251800,11.640251953125,9.78989028930664,-0.2322375625371933,0.10055647045373917
1683474515475231000,11.65023095703125,9.78989028930664,-0.2298433631658554,0.0933738648891449
1683474515485240800,11.66024072265625,9.78989028930664,-0.22266076505184174,0.09576806426048279
1683474515495250400,11.67025048828125,9.792284965515137,-0.22505496442317963,0.0933738648891449
1683474515505260300,11.68026025390625,9.780313491821289,-0.22744916379451752,0.10295066982507706
1683474515515239700,11.69023974609375,9.782708168029785,-0.22744916379451752,0.09816227108240128
1683474515525249300,11.700249267578124,9.782708168029785,-0.2298433631658554,0.09576806426048279
1683474515535259100,11.710259033203124,9.785101890563965,-0.21787235140800476,0.09816227108240128
1683474515545238300,11.72023828125,9.782708168029785,-0.2322375625371933,0.1173158809542656
1683474515555248000,11.730248046875,9.797073364257812,-0.22505496442317963,0.11252748221158981
1683474515565258000,11.740258056640625,9.780313491821289,-0.2322375625371933,0.11013327538967133
1683474515575389700,11.7503896484375,9.758766174316406,-0.22026655077934265,0.11252748221158981
1683474515585247000,11.7602470703125,9.77791976928711,-0.2322375625371933,0.090979665517807
1683474515595256600,11.770256591796874,9.77791976928711,-0.22266076505184174,0.08858546614646912
1683474515605236000,11.780236083984375,9.77791976928711,-0.22266076505184174,0.08619125932455063
1683474515615245800,11.790245849609375,9.77791976928711,-0.23702596127986908,0.11013327538967133
1683474515625255400,11.80025537109375,9.780313491821289,-0.23942017555236816,0.09576806426048279
1683474515635234800,11.81023486328125,9.804255485534668,-0.2082955539226532,0.09816227108240128
1683474515645244700,11.82024462890625,9.804255485534668,-0.2322375625371933,0.09576806426048279
1683474515655376400,11.83037646484375,9.770736694335938,-0.22744916379451752,0.10534487664699554
1683474515665233400,11.8402333984375,9.77791976928711,-0.2298433631658554,0.08858546614646912
1683474515675243300,11.8502431640625,9.77791976928711,-0.22026655077934265,0.09816227108240128
1683474515685252900,11.8602529296875,9.797073364257812,-0.2298433631658554,0.10773907601833344
1683474515695830000,11.870830078125,9.780313491821289,-0.22505496442317963,0.10773907601833344
1683474515715251700,11.890251708984374,9.80904483795166,-0.22026655077934265,0.10534487664699554
1683474515725231000,11.900231201171875,9.780313491821289,-0.23942017555236816,0.11013327538967133
1683474515735241000,11.910240966796875,9.775525093078613,-0.23942017555236816,0.11013327538967133
1683474515745250600,11.92025048828125,9.787496566772461,-0.2322375625371933,0.10295066982507706
1683474515755260400,11.930260498046875,9.792284965515137,-0.22026655077934265,0.11252748221158981
1683474515765239600,11.940239501953124,9.770736694335938,-0.21547815203666687,0.10295066982507706
1683474515775249400,11.95024951171875,9.797073364257812,-0.23702596127986908,0.10055647045373917
1683474515785259000,11.960259033203124,9.797073364257812,-0.21787235140800476,0.10773907601833344
1683474515795238400,11.97023828125,9.797073364257812,-0.2298433631658554,0.090979665517807
1683474515805248000,11.980248046875,9.773131370544434,-0.21787235140800476,0.11013327538967133
1683474515815257900,11.9902578125,9.768342971801758,-0.22026655077934265,0.08619125932455063
1683474515825237200,12.0002373046875,9.801861763000488,-0.23702596127986908,0.08379705995321274
1683474515835247000,12.0102470703125,9.77791976928711,-0.23702596127986908,0.1173158809542656
1683474515845256700,12.020256591796874,9.80904483795166,-0.21308395266532898,0.10295066982507706
1683474515855235800,12.03023583984375,9.80904483795166,-0.24899697303771973,0.11013327538967133
1683474515865245700,12.04024560546875,9.765948295593262,-0.22266076505184174,0.1149216815829277
1683474515875255300,12.05025537109375,9.751583099365234,-0.2298433631658554,0.10055647045373917
1683474515885234700,12.060234619140624,9.792284965515137,-0.2082955539226532,0.090979665517807
1683474515895366400,12.070366455078124,9.782708168029785,-0.22505496442317963,0.09576806426048279
1683474515905254100,12.080254150390624,9.765948295593262,-0.2298433631658554,0.10295066982507706
1683474515915233500,12.090233642578125,9.78989028930664,-0.2346317619085312,0.09816227108240128
1683474515925243400,12.100243408203125,9.77791976928711,-0.22744916379451752,0.10534487664699554
1683474515935375000,12.110375,9.797073364257812,-0.22744916379451752,0.09576806426048279
1683474515945232400,12.120232421875,9.782708168029785,-0.2346317619085312,0.09576806426048279
1683474515955242000,12.130241943359374,9.77791976928711,-0.2298433631658554,0.11013327538967133
1683474515965251800,12.140251953125,9.768342971801758,-0.22505496442317963,0.10534487664699554
1683474515975231000,12.15023095703125,9.78989028930664,-0.24660277366638184,0.08619125932455063
1683474515985240800,12.16024072265625,9.775525093078613,-0.2106897532939911,0.11013327538967133
1683474515995250400,12.17025048828125,9.780313491821289,-0.2322375625371933,0.0933738648891449
1683474516005260300,12.18026025390625,9.792284965515137,-0.22744916379451752,0.09816227108240128
1683474516014831400,12.189831298828125,9.792284965515137,-0.21787235140800476,0.08858546614646912
1683474516025249300,12.200249267578124,9.782708168029785,-0.22266076505184174,0.09576806426048279
1683474516035259100,12.210259033203124,9.804255485534668,-0.23942017555236816,0.090979665517807
1683474516045238300,12.22023828125,9.78989028930664,-0.22505496442317963,0.10534487664699554
1683474516055248100,12.230248046875,9.775525093078613,-0.22744916379451752,0.10295066982507706
1683474516065258000,12.240258056640625,9.782708168029785,-0.22505496442317963,0.10055647045373917
1683474516075237000,12.250237060546874,9.780313491821289,-0.2322375625371933,0.09816227108240128
1683474516085247000,12.2602470703125,9.77791976928711,-0.22505496442317963,0.11013327538967133
1683474516095761700,12.27076171875,9.785101890563965,-0.24660277366638184,0.090979665517807
1683474516105266400,12.280266357421874,9.78989028930664,-0.23702596127986908,0.10534487664699554
1683474516115245800,12.290245849609375,9.782708168029785,-0.2106897532939911,0.10773907601833344
1683474516125255400,12.30025537109375,9.782708168029785,-0.2298433631658554,0.090979665517807
1683474516135469800,12.3104697265625,9.787496566772461,-0.2322375625371933,0.10773907601833344
1683474516145244700,12.32024462890625,9.78989028930664,-0.21547815203666687,0.09816227108240128
1683474516155254300,12.330254150390624,9.775525093078613,-0.2298433631658554,0.09576806426048279
1683474516165233400,12.3402333984375,9.797073364257812,-0.2322375625371933,0.0933738648891449
1683474516175243300,12.3502431640625,9.785101890563965,-0.22744916379451752,0.10055647045373917
1683474516185252900,12.3602529296875,9.785101890563965,-0.22744916379451752,0.09816227108240128
1683474516195232300,12.370232177734374,9.77791976928711,-0.2346317619085312,0.10055647045373917
1683474516205242000,12.3802421875,9.787496566772461,-0.23942017555236816,0.11013327538967133
1683474516215373800,12.390373779296874,9.77791976928711,-0.24420857429504395,0.11252748221158981
1683474516225231000,12.400231201171875,9.801861763000488,-0.22744916379451752,0.10534487664699554
1683474516235241000,12.410240966796875,9.794678688049316,-0.22026655077934265,0.10534487664699554
1683474516245250600,12.42025048828125,9.77791976928711,-0.22026655077934265,0.10055647045373917
1683474516254824700,12.42982470703125,9.787496566772461,-0.2298433631658554,0.1173158809542656
1683474516265239600,12.440239501953124,9.768342971801758,-0.20350714027881622,0.10295066982507706
1683474516275249400,12.45024951171875,9.773131370544434,-0.2346317619085312,0.09576806426048279
1683474516285259000,12.460259033203124,9.782708168029785,-0.2106897532939911,0.10534487664699554
1683474516295482400,12.470482421875,9.77791976928711,-0.22266076505184174,0.09576806426048279
1683474516305248000,12.480248046875,9.780313491821289,-0.21787235140800476,0.11013327538967133
1683474516315257900,12.4902578125,9.792284965515137,-0.22505496442317963,0.09816227108240128
1683474516325237200,12.5002373046875,9.787496566772461,-0.2322375625371933,0.10534487664699554
1683474516335247000,12.5102470703125,9.785101890563965,-0.21308395266532898,0.10055647045373917
1683474516345256700,12.520256591796874,9.780313491821289,-0.23942017555236816,0.0933738648891449
1683474516355235800,12.53023583984375,9.785101890563965,-0.24660277366638184,0.09576806426048279
1683474516365245700,12.54024560546875,9.787496566772461,-0.22744916379451752,0.09576806426048279
1683474516376008400,12.551008544921874,9.782708168029785,-0.23942017555236816,0.090979665517807
1683474516395244500,12.57024462890625,9.785101890563965,-0.22266076505184174,0.0933738648891449
1683474516405254100,12.580254150390624,9.785101890563965,-0.2346317619085312,0.10295066982507706
1683474516416017000,12.591016845703125,9.780313491821289,-0.22505496442317963,0.11013327538967133
1683474516435253000,12.6102529296875,9.780313491821289,-0.24899697303771973,0.09816227108240128
1683474516445232400,12.620232421875,9.792284965515137,-0.23702596127986908,0.08858546614646912
1683474516455242000,12.630241943359374,9.780313491821289,-0.2561795711517334,0.10295066982507706
1683474516465251800,12.640251953125,9.780313491821289,-0.22744916379451752,0.10773907601833344
1683474516475231000,12.65023095703125,9.787496566772461,-0.22026655077934265,0.10295066982507706
1683474516485240800,12.66024072265625,9.794678688049316,-0.22266076505184174,0.08379705995321274
1683474516495250400,12.67025048828125,9.787496566772461,-0.22744916379451752,0.10773907601833344
1683474516505260300,12.68026025390625,9.785101890563965,-0.23702596127986908,0.10295066982507706
1683474516515239700,12.69023974609375,9.78989028930664,-0.23942017555236816,0.09576806426048279
1683474516525249300,12.700249267578124,9.787496566772461,-0.22026655077934265,0.08619125932455063
