time,seconds_elapsed,z,y,x
1683474283726865700,0.17486572265625,0.03298672288656235,-0.01771509274840355,0.05314527451992035
1683474283736865800,0.18486572265625,0.05314527451992035,-0.09773843735456467,0.05864306539297104
1683474283746854700,0.194854736328125,0.10506882518529892,-0.20463985204696655,0.10445795953273773
1683474283756885200,0.20488525390625,0.19425514340400696,-0.29565876722335815,0.17104226350784302
1683474283766843600,0.21484375,0.2168571650981903,-0.45692721009254456,0.22663100063800812
1683474283776875000,0.224875,0.192422553896904,-0.523511528968811,0.294437050819397
1683474283786863000,0.234863037109375,0.152105450630188,-0.5247332453727722,0.3701843321323395
1683474283796894500,0.24489453125,0.08918632566928864,-0.4990769028663635,0.44104471802711487
1683474283806852400,0.254852294921875,0.036651913076639175,-0.4306600093841553,0.49785518646240234
1683474283816883500,0.264883544921875,0.010995574295520782,-0.34208452701568604,0.5204572081565857
1683474283826871800,0.274871826171875,0.00855211354792118,-0.27488934993743896,0.5015203952789307
1683474283836872200,0.2848720703125,0.01160643994808197,-0.26633724570274353,0.46731191873550415
1683474283846860800,0.29486083984375,0.004886921960860491,-0.2565633952617645,0.4343251883983612
1683474283856889900,0.304889892578125,0.0006108652451075613,-0.24007004499435425,0.38728857040405273
1683474283866848800,0.314848876953125,0.009773843921720982,-0.25534167885780334,0.32498031854629517
1683474283876879000,0.324879150390625,0.030543262138962746,-0.2687807083129883,0.24434609711170197
1683474283886868200,0.3348681640625,0.05619960278272629,-0.28588494658470154,0.15027284622192383
1683474283896869000,0.344869140625,0.0861319974064827,-0.3127630054950714,0.02932153269648552
1683474283906857200,0.354857177734375,0.08368854224681854,-0.3139847218990326,-0.004886921960860491
1683474283916888600,0.364888671875,0.06169738993048668,-0.2583959996700287,0.006108652334660292
1683474283926846500,0.374846435546875,0.02932153269648552,-0.18875735998153687,0.03420845419168472
1683474283936877800,0.3848779296875,0.012217304669320583,-0.13011430203914642,0.06658431142568588
1683474283946866000,0.394865966796875,0.0012217304902151227,-0.06352998316287994,0.10262536257505417
1683474283956867000,0.4048671875,-0.006719517521560192,-0.0006108652451075613,0.1215621829032898
1683474283966855700,0.414855712890625,0.001832595793530345,0.04764748737215996,0.1160643994808197
1683474283976887000,0.424886962890625,0.00733038317412138,0.08002334833145142,0.10690141469240189
1683474283986844700,0.4348447265625,0.009773843921720982,0.10018189996480942,0.09162978827953339
1683474283996875800,0.444875732421875,0.005497787147760391,0.10445795953273773,0.06841690838336945
1683474284006864400,0.454864501953125,-0.01160643994808197,0.07880161702632904,0.04459316283464432
1683474284016864300,0.4648642578125,-0.04886921867728233,0.09529497474431992,0.009773843921720982
1683474284026853000,0.47485302734375,-0.027488935738801956,0.22602014243602753,-0.07819075137376785
1683474284036883700,0.4848837890625,0.025656340643763542,0.20830504596233368,-0.17043140530586243
1683474284046872600,0.49487255859375,0.05864306539297104,0.028099801391363144,-0.2064724564552307
1683474284056873500,0.50487353515625,0.04153883829712868,-0.001832595793530345,-0.22357667982578278
1683474284066861800,0.51486181640625,0.06414084881544113,-0.015271631069481373,-0.16554448008537292
1683474284076892400,0.524892333984375,0.11484266817569733,-0.09834930300712585,-0.07819075137376785
1683474284086850800,0.534850830078125,0.16798794269561768,-0.19975294172763824,0.004886921960860491
1683474284096881400,0.54488134765625,0.2321287989616394,-0.29504790902137756,0.08979719132184982
1683474284106870300,0.554870361328125,0.29077184200286865,-0.35674530267715454,0.17104226350784302
1683474284116871200,0.56487109375,0.3390302062034607,-0.3805690407752991,0.2370157092809677
1683474284126859300,0.574859375,0.36651915311813354,-0.3927863538265228,0.2889392673969269
1683474284136891000,0.584890869140625,0.37262779474258423,-0.37751471996307373,0.3084869384765625
1683474284146848500,0.5948486328125,0.35613444447517395,-0.3127630054950714,0.28649580478668213
1683474284156879600,0.604879638671875,0.3591887652873993,-0.22113321721553802,0.23457226157188416
1683474284166868000,0.614867919921875,0.3591887652873993,-0.19058994948863983,0.1563815027475357
1683474284176868900,0.624868896484375,0.3597996234893799,-0.2015855312347412,0.07330382615327835
1683474284186857000,0.63485693359375,0.3732386529445648,-0.26145032048225403,-0.04153883829712868
1683474284196888300,0.644888427734375,0.3842342495918274,-0.3274237811565399,-0.11239920556545258
1683474284206846000,0.654845947265625,0.3982841372489929,-0.4098905920982361,-0.17287486791610718
1683474284216877300,0.664877197265625,0.4086688458919525,-0.4660901725292206,-0.19547687470912933
1683474284226865700,0.67486572265625,0.46364670991897583,-0.5314527750015259,-0.1966986060142517
1683474284236866000,0.684865966796875,0.5106833577156067,-0.5772676467895508,-0.19975294172763824
1683474284246854400,0.6948544921875,0.503963828086853,-0.5381723046302795,-0.2015855312347412
1683474284256885800,0.7048857421875,0.45692721009254456,-0.46731191873550415,-0.17959438264369965
1683474284266843400,0.714843505859375,0.3842342495918274,-0.38117989897727966,-0.14355333149433136
1683474284276874800,0.724874755859375,0.29626965522766113,-0.2620611786842346,-0.09957103431224823
1683474284286863000,0.734863037109375,0.2064724564552307,-0.07269296050071716,-0.0354301854968071
1683474284296894500,0.74489453125,0.1319468915462494,0.1667662113904953,0.04764748737215996
1683474284306852000,0.75485205078125,0.0708603709936142,0.3952298164367676,0.14294247329235077
1683474284316883200,0.76488330078125,0.015882495790719986,0.5998696684837341,0.2571742534637451
1683474284326871600,0.77487158203125,-0.03848451003432274,0.7751879692077637,0.375071257352829
1683474284336872700,0.784872802734375,-0.08124507963657379,0.8747590184211731,0.4813618063926697
1683474284346860800,0.79486083984375,-0.10934487730264664,0.8032878041267395,0.5552765130996704
1683474284356891600,0.8048916015625,-0.10751228034496307,0.5418374538421631,0.5711590051651001
1683474284366849500,0.814849609375,-0.05925392732024193,0.27611109614372253,0.5253441333770752
1683474284376880600,0.824880615234375,-0.00427605677396059,0.14477506279945374,0.45692721009254456
1683474284386869200,0.834869140625,-0.06719517707824707,0.11545353382825851,0.39645153284072876
1683474284396870000,0.844869873046875,-0.12950342893600464,0.1973094791173935,0.3543018400669098
1683474284406858200,0.854858154296875,-0.12339477986097336,0.27977627515792847,0.3066543638706207
1683474284416889600,0.8648896484375,-0.11056660860776901,0.23151792585849762,0.22296582162380219
1683474284426847200,0.87484716796875,-0.10445795953273773,0.14049901068210602,0.1319468915462494
1683474284436878300,0.88487841796875,-0.07635815441608429,0.09957103431224823,0.05742133408784866
1683474284446866700,0.89486669921875,-0.0555887371301651,0.05009094998240471,0.012217304669320583
1683474284456867600,0.90486767578125,-0.02871066704392433,-0.006108652334660292,-0.04337143152952194
1683474284466855700,0.914855712890625,0.01466076634824276,-0.09162978827953339,-0.08002334833145142
1683474284476886800,0.92488671875,0.05742133408784866,-0.16982053220272064,-0.05742133408784866
1683474284486844700,0.9348447265625,0.060475658625364304,-0.17776179313659668,0.04459316283464432
1683474284496876000,0.9448759765625,0.04886921867728233,-0.13927727937698364,0.13255776464939117
1683474284506864400,0.954864501953125,0.0354301854968071,-0.09224065393209457,0.19058994948863983
1683474284516865000,0.964864990234375,0.029932396486401558,-0.05497787147760391,0.2125810980796814
1683474284526853000,0.97485302734375,0.030543262138962746,-0.025656340643763542,0.20402899384498596
1683474284536884700,0.984884765625,0.03848451003432274,-0.01160643994808197,0.1771509200334549
1683474284546872600,0.99487255859375,0.048258353024721146,-0.02932153269648552,0.13500121235847473
1683474284556873200,1.004873291015625,0.06352998316287994,-0.06963863968849182,0.08857546001672745
1683474284566861800,1.01486181640625,0.0910189226269722,-0.10323622822761536,0.03726277872920036
1683474284576893200,1.02489306640625,0.1111774742603302,-0.12034045159816742,-0.007941247895359993
1683474284586850800,1.034850830078125,0.11911872029304504,-0.10201449692249298,-0.04642575979232788
1683474284596882200,1.044882080078125,0.10934487730264664,-0.039095375686883926,-0.07024950534105301
1683474284606870300,1.054870361328125,0.06780604273080826,0.04703662544488907,-0.06414084881544113
1683474284616871200,1.06487109375,0.009773843921720982,0.13011430203914642,-0.029932396486401558
1683474284626859300,1.074859375,-0.03176499158143997,0.21624629199504852,0.030543262138962746
1683474284636890600,1.084890625,-0.015271631069481373,0.2590068578720093,0.029932396486401558
1683474284646848300,1.09484814453125,0.05619960278272629,0.26083946228027344,0.007941247895359993
1683474284656879900,1.1048798828125,0.1362229436635971,0.24556782841682434,-0.005497787147760391
1683474284666868000,1.114867919921875,0.17592918872833252,0.2993239760398865,0.09896016865968704
1683474284676868600,1.12486865234375,0.2076941877603531,0.33536502718925476,0.14966198801994324
1683474284686857200,1.134857177734375,0.2632829248905182,0.3445279896259308,0.09468411654233932
1683474284696887800,1.1448876953125,0.3488040566444397,0.3640756905078888,-0.036041051149368286
1683474284706846000,1.154845947265625,0.4508185386657715,0.3891211748123169,-0.19058994948863983
1683474284716876800,1.164876708984375,0.5467243790626526,0.4239404797554016,-0.3170390725135803
1683474284726865700,1.17486572265625,0.6255260109901428,0.44226643443107605,-0.4043927788734436
1683474284736865800,1.18486572265625,0.6902777552604675,0.37568211555480957,-0.45692721009254456
1683474284746854700,1.194854736328125,0.770301103591919,0.24923302233219147,-0.47830748558044434
1683474284756885200,1.20488525390625,1.0751228332519531,0.29993483424186707,-0.5051855444908142
1683474284766843600,1.21484375,1.3817771673202515,0.4495968222618103,-0.53328537940979
1683474284776874500,1.22487451171875,1.720807433128357,0.42088615894317627,-0.6395758986473083
1683474284786863000,1.234863037109375,1.855197787284851,0.19364428520202637,-0.7733554244041443
1683474284796894000,1.24489404296875,1.9480493068695068,-0.05925392732024193,-0.9034696817398071
1683474284806852400,1.254852294921875,2.02929425239563,-0.30115658044815063,-1.0170906782150269
1683474284816883200,1.26488330078125,2.1337523460388184,-0.5528330206871033,-1.120937705039978
1683474284826871800,1.274871826171875,2.236377716064453,-0.8484918475151062,-1.2602150440216064
1683474284836871700,1.28487158203125,2.3096814155578613,-1.0293079614639282,-1.4391984939575195
1683474284846860800,1.29486083984375,2.342668294906616,-1.0115928649902344,-1.6102408170700073
1683474284856889900,1.304889892578125,2.356107234954834,-0.807563841342926,-1.730581283569336
1683474284866848800,1.314848876953125,2.353052854537964,-0.5057964324951172,-1.7702875137329102
1683474284876880100,1.324880126953125,2.361604928970337,-0.394008070230484,-1.7849482297897339
1683474284886896600,1.334896728515625,2.4269676208496094,-0.6963863968849182,-1.8362609148025513
1683474284896870000,1.344869873046875,2.5277602672576904,-1.3164145946502686,-1.9058995246887207
1683474284906857200,1.354857177734375,2.5802948474884033,-1.8582520484924316,-1.9089539051055908
1683474284916888000,1.36488818359375,2.1838431358337402,-1.3976596593856812,-1.4123204946517944
1683474284926846200,1.37484619140625,1.5180001258850098,-0.8301658630371094,-0.7556403279304504
1683474284936877600,1.384877685546875,1.2064588069915771,-0.7232644557952881,-0.48747047781944275
1683474284946866000,1.394865966796875,0.7666358947753906,-0.637132465839386,-0.17104226350784302
1683474284956866800,1.40486669921875,0.49357911944389343,-0.6695083379745483,-0.07635815441608429
1683474284966855700,1.414855712890625,0.33047810196876526,-0.49846604466438293,-0.10751228034496307
1683474284976886800,1.42488671875,0.2834414839744568,-0.2474004179239273,-0.20402899384498596
1683474284986844700,1.4348447265625,0.3744603991508484,-0.02382374368607998,-0.31459560990333557
1683474284996876500,1.44487646484375,0.5119050741195679,0.29565876722335815,-0.34697145223617554
1683474285006864400,1.454864501953125,0.5968153476715088,0.7428121566772461,-0.2370157092809677
1683474285016865500,1.464865478515625,0.6548475623130798,1.3640620708465576,0.013439035043120384
1683474285026853400,1.474853271484375,0.7568620443344116,1.9743164777755737,0.394008070230484
1683474285036885000,1.484885009765625,0.7757988572120667,2.3383922576904297,0.7159340381622314
1683474285046872600,1.49487255859375,0.9248499870300293,2.574186086654663,0.9810495972633362
1683474285056874000,1.5048740234375,1.2602150440216064,2.7421741485595703,1.244943380355835
1683474285066861800,1.51486181640625,1.3927727937698364,2.6340508460998535,1.4257594347000122
1683474285076893000,1.524892822265625,1.4978415966033936,2.747061014175415,1.5460999011993408
1683474285086850800,1.534850830078125,1.6322319507598877,3.391523838043213,1.5809192657470703
1683474285096882000,1.5448818359375,1.748907208442688,4.1832051277160645,1.5650367736816406
1683474285106870500,1.55487060546875,1.9297232627868652,4.090353488922119,1.2986994981765747
1683474285116872700,1.564872802734375,1.7415767908096313,0.3494149148464203,-0.10384709388017654
1683474285126859300,1.574859375,1.431868076324463,-2.959031343460083,-1.0482447147369385
1683474285136889900,1.584889892578125,1.616349458694458,-3.5271358489990234,-1.236391305923462
1683474285146848500,1.5948486328125,1.986533761024475,-3.0885345935821533,-1.2418889999389648
1683474285156880100,1.604880126953125,2.3157901763916016,-2.479501962661743,-1.19912850856781
1683474285166867700,1.61486767578125,2.479501962661743,-1.7537940740585327,-1.2046263217926025
1683474285176869400,1.624869384765625,2.58457088470459,-1.1930198669433594,-1.2779301404953003
1683474285186857000,1.63485693359375,2.632218360900879,-0.7623597979545593,-1.4135421514511108
1683474285196888800,1.644888916015625,2.646879196166992,-0.46303585171699524,-1.550986886024475
1683474285206846000,1.654845947265625,2.6230554580688477,-0.18509216606616974,-1.6297885179519653
1683474285216877800,1.6648779296875,2.5528059005737305,0.01710422709584236,-1.6041321754455566
1683474285226865400,1.674865478515625,2.4831671714782715,0.1258382350206375,-1.4776830673217773
1683474285236866800,1.68486669921875,2.4355196952819824,0.24556782841682434,-1.2883148193359375
1683474285246854400,1.6948544921875,2.423302412033081,0.42577308416366577,-1.0726794004440308
1683474285256886500,1.704886474609375,2.4544565677642822,0.7006624341011047,-0.8527678847312927
1683474285266843400,1.714843505859375,2.503936529159546,1.0800096988677979,-0.6511823534965515
1683474285276874000,1.7248740234375,2.5277602672576904,1.3720033168792725,-0.37079519033432007
1683474285286863000,1.734863037109375,2.612670660018921,1.0433578491210938,-0.1007927656173706
1683474285296895200,1.744895263671875,2.7452285289764404,0.7024950385093689,0.13500121235847473
1683474285306852000,1.75485205078125,2.9101619720458984,0.19608774781227112,0.3335324227809906
1683474285316884000,1.764884033203125,3.003624439239502,0.09224065393209457,0.4764748811721802
1683474285326871800,1.774871826171875,2.959642171859741,0.38117989897727966,0.4905247986316681
1683474285336872700,1.784872802734375,2.831360340118408,0.8845328688621521,0.3683517575263977
1683474285346860500,1.794860595703125,2.7336220741271973,1.4648548364639282,0.1417207419872284
1683474285356892000,1.804891845703125,2.7116308212280273,1.9248363971710205,-0.22663100063800812
1683474285366849500,1.814849609375,3.00118088722229,1.9223929643630981,-0.8778133392333984
1683474285376880400,1.82488037109375,3.09586501121521,1.6670511960983276,-1.1826350688934326
1683474285386869000,1.834868896484375,2.954144239425659,1.289536476135254,-1.3555099964141846
1683474285396869000,1.844869140625,2.6035077571868896,0.8417723178863525,-1.4025466442108154
1683474285406858200,1.854858154296875,2.180178165435791,0.45265114307403564,-1.3573426008224487
1683474285416890000,1.86489013671875,1.845423936843872,0.21624629199504852,-1.2528846263885498
1683474285426847000,1.874846923828125,1.6878206729888916,-0.009162978269159794,-1.1582005023956299
1683474285436878800,1.88487890625,1.6505578756332397,-0.2718350291252136,-1.1044443845748901
1683474285446866700,1.89486669921875,1.6505578756332397,-0.45814892649650574,-1.0512990951538086
1683474285456868400,1.904868408203125,1.6633861064910889,-0.503963828086853,-0.9871582388877869
1683474285466855700,1.914855712890625,1.655444860458374,-0.5375614166259766,-0.9431759119033813
1683474285476887800,1.9248876953125,1.6578882932662964,-0.5760459303855896,-0.9004153609275818
1683474285486844700,1.9348447265625,1.690264105796814,-0.5907067060470581,-0.8662069439888
1683474285496876500,1.94487646484375,1.7354681491851807,-0.6279694437980652,-0.8478809595108032
1683474285506864000,1.954864013671875,1.747685432434082,-0.6633996367454529,-0.8460483551025391
1683474285516864500,1.964864501953125,1.5949691534042358,-0.6432411074638367,-0.7568620443344116
1683474285526853000,1.97485302734375,1.2137892246246338,-0.5241223573684692,-0.5448917746543884
1683474285536884200,1.98488427734375,0.7244861721992493,-0.35674530267715454,-0.27000242471694946
1683474285546872600,1.99487255859375,0.4758640229701996,-0.3439171314239502,-0.04948008432984352
1683474285556874200,2.004874267578125,0.513126790523529,-0.4349360466003418,0.005497787147760391
1683474285566861600,2.014861572265625,0.6976081132888794,-0.5094616413116455,0.02321287989616394
1683474285576894000,2.02489404296875,0.8491026759147644,-0.5461135506629944,0.10934487730264664
1683474285586850800,2.034850830078125,0.9297369122505188,-0.3194825351238251,0.2742784917354584
1683474285596882700,2.044882568359375,0.9419541954994202,0.08674286305904388,0.46731191873550415
1683474285606870300,2.054870361328125,0.9205739498138428,0.46303585171699524,0.6493497490882874
1683474285616871700,2.06487158203125,0.8924741148948669,0.7037167549133301,0.817948579788208
1683474285626859500,2.074859619140625,0.8802568316459656,0.8692612648010254,1.017701506614685
1683474285636891100,2.08489111328125,0.8655960559844971,0.9908234477043152,1.2046263217926025
1683474285646848500,2.0948486328125,0.8429940342903137,1.0684033632278442,1.3445143699645996
1683474285656880400,2.10488037109375,0.8216137290000916,1.0977247953414917,1.4471397399902344
1683474285666868000,2.114867919921875,0.8118399381637573,0.9755517840385437,1.455691933631897
1683474285676869000,2.124869140625,0.7849618196487427,0.6542366743087769,1.3267992734909058
1683474285686857000,2.13485693359375,0.6927211880683899,0.2076941877603531,1.084285855293274
1683474285696888600,2.144888671875,0.5424483418464661,-0.09224065393209457,0.7929030656814575
1683474285706846200,2.15484619140625,0.3878994286060333,-0.2541199326515198,0.5467243790626526
1683474285716877800,2.1648779296875,0.25961771607398987,-0.3579670190811157,0.33658674359321594
1683474285726865700,2.17486572265625,0.11484266817569733,-0.43799036741256714,0.15393804013729095
1683474285736866800,2.18486669921875,-0.06108652427792549,-0.5088507533073425,0.03298672288656235
1683474285746854700,2.194854736328125,-0.21991148591041565,-0.6017022728919983,-0.03420845419168472
1683474285756886300,2.20488623046875,-0.31520646810531616,-0.6682865619659424,-0.06475171446800232
1683474285766843600,2.21484375,-0.3384193480014801,-0.675006091594696,-0.07880161702632904
1683474285776875800,2.224875732421875,-0.34025195240974426,-0.6102544069290161,-0.07635815441608429
1683474285786863000,2.234863037109375,-0.35735616087913513,-0.5100724697113037,-0.0555887371301651
1683474285796895000,2.24489501953125,-0.37690386176109314,-0.4239404797554016,-0.04337143152952194
1683474285806852400,2.254852294921875,-0.3738495409488678,-0.36713001132011414,-0.060475658625364304
1683474285816884000,2.264884033203125,-0.3494149148464203,-0.3182607889175415,-0.1062905490398407
1683474285826871800,2.274871826171875,-0.3274237811565399,-0.26633724570274353,-0.16554448008537292
1683474285836873200,2.284873291015625,-0.3176499307155609,-0.20097467303276062,-0.20891591906547546
1683474285846860800,2.29486083984375,-0.31581732630729675,-0.14538592100143433,-0.2217440903186798
1683474285856891100,2.30489111328125,-0.31093040108680725,-0.0910189226269722,-0.20402899384498596
1683474285866848800,2.314848876953125,-0.3029891550540924,-0.027488935738801956,-0.17348572611808777
1683474285876880600,2.324880615234375,-0.2889392673969269,0.03787364438176155,-0.14294247329235077
1683474285886868200,2.3348681640625,-0.2767219543457031,0.05803219974040985,-0.12339477986097336
1683474285896870000,2.344869873046875,-0.2718350291252136,0.006719517521560192,-0.11789698898792267
1683474285906857200,2.354857177734375,-0.26572638750076294,-0.07391469180583954,-0.11545353382825851
1683474285916889300,2.364889404296875,-0.25534167885780334,-0.1563815027475357,-0.11484266817569733
1683474285926846200,2.37484619140625,-0.24068090319633484,-0.23457226157188416,-0.11850785464048386
1683474285936878600,2.384878662109375,-0.2278527319431305,-0.26939156651496887,-0.12828169763088226
1683474285946866000,2.394865966796875,-0.2119702398777008,-0.2431243658065796,-0.14966198801994324
1683474285956867800,2.404867919921875,-0.1618792861700058,-0.17104226350784302,-0.2076941877603531
1683474285967262000,2.415261962890625,-0.12034045159816742,-0.13805554807186127,-0.2565633952617645
1683474285977293600,2.42529345703125,-0.07880161702632904,-0.11972958594560623,-0.3078760802745819
1683474285987250700,2.435250732421875,-0.039706241339445114,-0.10018189996480942,-0.35552358627319336
1683474285997282600,2.445282470703125,0.02871066704392433,-0.08735372871160507,-0.4056145250797272
1683474286007270400,2.4552705078125,0.06475171446800232,-0.05314527451992035,-0.4153883755207062
1683474286017271800,2.465271728515625,0.05803219974040985,-0.024434609338641167,-0.3805690407752991
1683474286027259400,2.47525927734375,0.04214970022439957,-0.02932153269648552,-0.32559117674827576
1683474286037291000,2.485291015625,0.029932396486401558,-0.06963863968849182,-0.27000242471694946
1683474286047279000,2.495279052734375,0.021991148591041565,-0.12034045159816742,-0.22113321721553802
1683474286057280300,2.5052802734375,0.015882495790719986,-0.1618792861700058,-0.18814650177955627
1683474286067267800,2.515267822265625,0.014049900695681572,-0.18020524084568024,-0.17531833052635193
1683474286077299700,2.5252998046875,0.014049900695681572,-0.1716531366109848,-0.18875735998153687
1683474286087256800,2.5352568359375,0.02015855349600315,-0.14905111491680145,-0.21807889640331268
1683474286097288700,2.545288818359375,0.031154127791523933,-0.11911872029304504,-0.25045475363731384
1683474286107276500,2.555276611328125,0.03726277872920036,-0.08491026610136032,-0.26022860407829285
1683474286117277400,2.56527734375,0.036651913076639175,-0.05864306539297104,-0.25106561183929443
1683474286127265500,2.575265625,0.029932396486401558,-0.04764748737215996,-0.22113321721553802
1683474286137297400,2.58529736328125,0.022602014243602753,-0.04642575979232788,-0.1814269721508026
1683474286147254300,2.595254150390625,0.014049900695681572,-0.05253441259264946,-0.13255776464939117
1683474286157286100,2.6052861328125,0.00733038317412138,-0.0659734457731247,-0.07819075137376785
1683474286167273700,2.615273681640625,-0.001832595793530345,-0.08735372871160507,-0.025656340643763542
1683474286177275400,2.625275390625,-0.01466076634824276,-0.1111774742603302,0.019547687843441963
1683474286187263000,2.635262939453125,-0.031154127791523933,-0.13011430203914642,0.05925392732024193
1683474286197294800,2.645294921875,-0.048258353024721146,-0.13439035415649414,0.08491026610136032
1683474286207252000,2.655251953125,-0.05619960278272629,-0.10995574295520782,0.08552113175392151
1683474286217283800,2.665283935546875,-0.05375614017248154,-0.05925392732024193,0.06902777403593063
1683474286227271700,2.675271728515625,-0.05253441259264946,0.00366519158706069,0.0507018156349659
1683474286237272800,2.68527294921875,-0.060475658625364304,0.051312681287527084,0.045204028487205505
1683474286247260400,2.695260498046875,-0.07696902006864548,0.0757472887635231,0.05742133408784866
1683474286257292500,2.70529248046875,-0.10262536257505417,0.059864792972803116,0.08185594528913498
1683474286267249400,2.71524951171875,-0.11667526513338089,0.02932153269648552,0.09407325088977814
1683474286277281500,2.725281494140625,-0.1313360333442688,-0.005497787147760391,0.10812314599752426
1683474286287269000,2.73526904296875,-0.14233160018920898,-0.03848451003432274,0.12217304855585098
1683474286297301200,2.74530126953125,-0.14905111491680145,-0.0555887371301651,0.13255776464939117
1683474286307258000,2.755258056640625,-0.1514945775270462,-0.05497787147760391,0.12950342893600464
1683474286317290500,2.76529052734375,-0.15271630883216858,-0.03176499158143997,0.12095131725072861
1683474286327277600,2.775277587890625,-0.1466076523065567,-0.003054326167330146,0.10323622822761536
1683474286337279200,2.785279296875,-0.1362229436635971,0.012217304669320583,0.08429940044879913
1683474286347266600,2.7952666015625,-0.13072516024112701,0.010995574295520782,0.07024950534105301
1683474286357298400,2.80529833984375,-0.12828169763088226,0.0006108652451075613,0.06352998316287994
1683474286367255600,2.815255615234375,-0.1313360333442688,-0.013439035043120384,0.06780604273080826
1683474286377288000,2.825287841796875,-0.13255776464939117,-0.025656340643763542,0.07269296050071716
1683474286387275300,2.835275146484375,-0.13500121235847473,-0.03481931984424591,0.07635815441608429
1683474286397276400,2.8452763671875,-0.1411098688840866,-0.036041051149368286,0.07024950534105301
1683474286407264300,2.85526416015625,-0.15821409225463867,-0.021380282938480377,0.06780604273080826
1683474286417296400,2.86529638671875,-0.18081611394882202,0.012828170321881771,0.0659734457731247
1683474286427253200,2.875253173828125,-0.20830504596233368,0.03237585723400116,0.0507018156349659
1683474286437285000,2.88528515625,-0.25045475363731384,0.039095375686883926,0.04459316283464432
1683474286447273000,2.89527294921875,-0.3078760802745819,0.03787364438176155,0.04886921867728233
1683474286457274000,2.905274169921875,-0.38117989897727966,0.02321287989616394,0.05803219974040985
1683474286467262000,2.915261962890625,-0.46853363513946533,0.009773843921720982,0.08735372871160507
1683474286477293600,2.92529345703125,-0.5668829679489136,0.019547687843441963,0.12400564551353455
1683474286487250700,2.935250732421875,-0.6902777552604675,0.048258353024721146,0.14844025671482086
1683474286497281500,2.945281494140625,-0.8643743395805359,0.08307767659425735,0.14782938361167908
1683474286507270400,2.9552705078125,-1.0122036933898926,0.02932153269648552,0.16371189057826996
1683474286517271800,2.965271728515625,-1.1276572942733765,-0.08307767659425735,0.18509216606616974
1683474286527259400,2.97525927734375,-1.2492194175720215,-0.16859880089759827,0.19058994948863983
1683474286537291300,2.985291259765625,-1.3946053981781006,-0.19547687470912933,0.19914206862449646
1683474286547278800,2.99527880859375,-1.6676621437072754,-0.11423180252313614,0.22113321721553802
1683474286557280500,3.005280517578125,-1.8594738245010376,-0.02687807008624077,0.26511552929878235
1683474286567267800,3.015267822265625,-2.0079140663146973,0.02687807008624077,0.3585779070854187
1683474286577300000,3.025300048828125,-2.132530689239502,0.016493361443281174,0.45326200127601624
1683474286587256800,3.0352568359375,-2.22782564163208,0.01771509274840355,0.48685958981513977
1683474286597288700,3.045288818359375,-2.291966438293457,0.07269296050071716,0.4660901725292206
1683474286607276300,3.0552763671875,-2.3848178386688232,0.20586158335208893,0.43737950921058655
1683474286617276700,3.065276611328125,-2.554027557373047,0.4300491213798523,0.43249258399009705
1683474286627265500,3.075265625,-2.9602530002593994,0.6585127115249634,0.46364670991897583
1683474286637295900,3.0852958984375,-3.536909818649292,0.7385360598564148,0.5112941861152649
1683474286647254500,3.095254638671875,-4.134946823120117,0.6279694437980652,0.6029239892959595
1683474286657285000,3.10528515625,-4.574769973754883,0.3292563557624817,0.6719517707824707
1683474286667274000,3.11527392578125,-4.858211517333984,0.04214970022439957,0.7165449261665344
1683474286677275400,3.125275390625,-5.03658390045166,-0.24984388053417206,0.6811147332191467
1683474286687263000,3.135262939453125,-5.097670555114746,-0.5308418869972229,0.5283984541893005
1683474286697295000,3.145295166015625,-5.07445764541626,-0.8210029006004333,0.3029891550540924
1683474286707252000,3.155251953125,-5.039027214050293,-1.014647126197815,0.08735372871160507
1683474286717284000,3.1652841796875,-4.998099327087402,-1.1032226085662842,-0.09285151958465576
1683474286727271700,3.175271728515625,-4.891808986663818,-1.120937705039978,-0.2376265823841095
1683474286737273300,3.1852734375,-4.714657783508301,-1.1337659358978271,-0.32070425152778625
1683474286747260700,3.1952607421875,-4.504520416259766,-1.1551461219787598,-0.3292563557624817
1683474286757292500,3.20529248046875,-4.238793849945068,-1.1954632997512817,-0.28099802136421204
1683474286767249700,3.215249755859375,-3.9675698280334473,-1.291369080543518,-0.21380282938480377
1683474286777281500,3.225281494140625,-3.6896259784698486,-1.4666874408721924,-0.16432274878025055
1683474286787269000,3.23526904296875,-3.409238815307617,-1.6756033897399902,-0.14355333149433136
1683474286797301200,3.24530126953125,-3.1257975101470947,-1.8429805040359497,-0.1667662113904953
1683474286807258400,3.25525830078125,-2.8240299224853516,-1.8625280857086182,-0.22846360504627228
1683474286817290500,3.26529052734375,-2.4807238578796387,-1.6536122560501099,-0.32070425152778625
1683474286827277800,3.27527783203125,-2.098932981491089,-1.3530665636062622,-0.47342056035995483
1683474286837279000,3.285279052734375,-1.7079792022705078,-1.0225883722305298,-0.6701191663742065
1683474286847266800,3.295266845703125,-1.2675453424453735,-0.49235737323760986,-0.912021815776825
1683474286857297200,3.305297119140625,-1.0952813625335693,-0.16249015927314758,-0.9718865752220154
1683474286867255000,3.315255126953125,-0.9285151958465576,0.08185594528913498,-0.9138544201850891
1683474286877286700,3.32528662109375,-0.8100073337554932,0.21868975460529327,-0.7660250067710876
1683474286887300900,3.33530078125,-0.7379252314567566,0.27061331272125244,-0.5803219676017761
1683474286897276000,3.34527587890625,-0.6676757335662842,0.2736676335334778,-0.3988949954509735
1683474286907263500,3.355263427734375,-0.5852088928222656,0.2535090744495392,-0.24984388053417206
1683474286917295400,3.36529541015625,-0.5009095072746277,0.2528982162475586,-0.13805554807186127
1683474286927252500,3.37525244140625,-0.42210787534713745,0.27122417092323303,-0.06414084881544113
1683474286937284600,3.38528466796875,-0.35246923565864563,0.27611109614372253,-0.024434609338641167
1683474286947272000,3.39527197265625,-0.2974913716316223,0.23029619455337524,-0.016493361443281174
1683474286957274000,3.405274169921875,-0.25473082065582275,0.13866640627384186,-0.02687807008624077
1683474286967261700,3.41526171875,-0.2070833146572113,0.07819075137376785,-0.051312681287527084
1683474286977293800,3.4252939453125,-0.1569923609495163,0.07208210229873657,-0.08979719132184982
1683474286987250700,3.435250732421875,-0.10506882518529892,0.08796459436416626,-0.14233160018920898
1683474286997282300,3.4452822265625,-0.04948008432984352,0.09285151958465576,-0.1966986060142517
1683474287007270400,3.4552705078125,-0.0006108652451075613,0.08002334833145142,-0.23090706765651703
1683474287017271300,3.465271240234375,0.03176499158143997,0.059864792972803116,-0.23335053026676178
1683474287027259400,3.47525927734375,0.05375614017248154,0.03787364438176155,-0.20525072515010834
1683474287037291000,3.485291015625,0.06658431142568588,0.021380282938480377,-0.16371189057826996
1683474287047278800,3.49527880859375,0.07880161702632904,0.01710422709584236,-0.1215621829032898
1683474287057280300,3.5052802734375,0.09285151958465576,0.006719517521560192,-0.09040805697441101
1683474287067512000,3.515511962890625,0.10751228034496307,0.010995574295520782,-0.07513642311096191
1683474287077299700,3.5252998046875,0.13377949595451355,0.04764748737215996,-0.0806342139840126
1683474287087256800,3.5352568359375,0.1612684279680252,0.10018189996480942,-0.10201449692249298
1683474287097289000,3.5452890625,0.17898350954055786,0.15760323405265808,-0.12828169763088226
1683474287107276500,3.555276611328125,0.1820378452539444,0.20036379992961884,-0.13316862285137177
1683474287117277400,3.56527734375,0.17104226350784302,0.2125810980796814,-0.11789698898792267
1683474287127265500,3.575265625,0.152105450630188,0.1820378452539444,-0.08918632566928864
1683474287137297200,3.585297119140625,0.12522737681865692,0.09040805697441101,-0.03298672288656235
1683474287147254300,3.595254150390625,0.11484266817569733,0.04092797264456749,0.00366519158706069
1683474287157286400,3.605286376953125,0.10567969083786011,0.01710422709584236,0.039706241339445114
1683474287167273700,3.615273681640625,0.09834930300712585,0.015882495790719986,0.07269296050071716
1683474287177275400,3.625275390625,0.0910189226269722,0.018936822190880775,0.10262536257505417
1683474287187263000,3.635262939453125,0.0757472887635231,0.033597588539123535,0.1368338167667389
1683474287197294600,3.645294677734375,0.05375614017248154,0.07269296050071716,0.16982053220272064
1683474287207252000,3.655251953125,0.03237585723400116,0.08002334833145142,0.19914206862449646
1683474287217283800,3.665283935546875,0.015271631069481373,0.054367005825042725,0.21074850857257843
1683474287227271700,3.675271728515625,0.001832595793530345,0.03481931984424591,0.20891591906547546
1683474287237272600,3.6852724609375,0.01038470957428217,0.056810468435287476,0.20036379992961884
1683474287247260700,3.6952607421875,0.05253441259264946,0.13255776464939117,0.18814650177955627
1683474287257292300,3.705292236328125,0.10323622822761536,0.23090706765651703,0.16982053220272064
1683474287267249400,3.71524951171875,0.14049901068210602,0.304210901260376,0.15332718193531036
1683474287277281300,3.72528125,0.15332718193531036,0.3176499307155609,0.13561208546161652
1683474287287268900,3.735268798828125,0.15027284622192383,0.2638937830924988,0.11484266817569733
1683474287297301000,3.745301025390625,0.13439035415649414,0.18387043476104736,0.09468411654233932
1683474287307258000,3.755258056640625,0.11301007121801376,0.12461651116609573,0.06108652427792549
1683474287317289700,3.765289794921875,0.1007927656173706,0.10323622822761536,0.019547687843441963
1683474287327277800,3.77527783203125,0.10506882518529892,0.10873401165008545,-0.018325956538319588
1683474287337279000,3.785279052734375,0.11667526513338089,0.13561208546161652,-0.04459316283464432
1683474287347266600,3.7952666015625,0.1264491081237793,0.14782938361167908,-0.06108652427792549
1683474287357298200,3.805298095703125,0.13072516024112701,0.12400564551353455,-0.06352998316287994
1683474287367255600,3.815255615234375,0.1362229436635971,0.07330382615327835,-0.06230825558304787
1683474287377287700,3.82528759765625,0.1417207419872284,0.029932396486401558,-0.056810468435287476
1683474287387275000,3.83527490234375,0.15577064454555511,0.01038470957428217,-0.05253441259264946
1683474287397276700,3.845276611328125,0.17470745742321014,0.01771509274840355,-0.045204028487205505
1683474287407264300,3.85526416015625,0.1875356286764145,0.045204028487205505,-0.0354301854968071
1683474287417296400,3.86529638671875,0.18631389737129211,0.06291911751031876,-0.031154127791523933
1683474287427253200,3.875253173828125,0.1771509200334549,0.07208210229873657,-0.03176499158143997
1683474287437285000,3.88528515625,0.1820378452539444,0.07513642311096191,-0.0555887371301651
1683474287447273000,3.89527294921875,0.2064724564552307,0.07452555745840073,-0.08674286305904388
1683474287457274400,3.9052744140625,0.252287358045578,0.08185594528913498,-0.12278391420841217
1683474287467261700,3.91526171875,0.3029891550540924,0.08979719132184982,-0.14782938361167908
1683474287477293600,3.92529345703125,0.34697145223617554,0.10995574295520782,-0.15821409225463867
1683474287487250700,3.935250732421875,0.38667771220207214,0.13072516024112701,-0.14966198801994324
1683474287497282800,3.94528271484375,0.4349360466003418,0.13927727937698364,-0.11362093687057495
1683474287507270100,3.955270263671875,0.4856378734111786,0.1264491081237793,-0.06230825558304787
1683474287517271800,3.965271728515625,0.5375614166259766,0.09957103431224823,-0.02382374368607998
1683474287527259400,3.97525927734375,0.5919284224510193,0.06841690838336945,-0.00733038317412138
1683474287537291300,3.985291259765625,0.6426302194595337,0.051312681287527084,-0.01466076634824276
1683474287547278600,3.995278564453125,0.6914994716644287,0.08002334833145142,-0.0354301854968071
1683474287557280300,4.0052802734375,0.7611380815505981,0.09040805697441101,-0.05009094998240471
1683474287567267800,4.015267822265625,0.846659243106842,0.0507018156349659,-0.05009094998240471
1683474287577300000,4.025300048828125,0.9437867999076843,0.009773843921720982,-0.03481931984424591
1683474287587256800,4.0352568359375,1.0348057746887207,0.03848451003432274,-0.036041051149368286
1683474287597288700,4.045288818359375,1.120937705039978,0.11239920556545258,-0.045204028487205505
1683474287607276300,4.0552763671875,1.2082914113998413,0.18509216606616974,-0.05619960278272629
1683474287617278000,4.06527783203125,1.3072515726089478,0.2278527319431305,-0.07208210229873657
1683474287627265500,4.075265625,1.4092661142349243,0.24984388053417206,-0.09346238523721695
1683474287637297400,4.08529736328125,1.5180001258850098,0.2632829248905182,-0.12400564551353455
1683474287647254300,4.095254150390625,1.6273449659347534,0.29077184200286865,-0.15821409225463867
1683474287657286400,4.105286376953125,1.747685432434082,0.37140607833862305,-0.18814650177955627
1683474287667274200,4.115274169921875,1.8790215253829956,0.5082398653030396,-0.20891591906547546
1683474287677275400,4.125275390625,1.9932533502578735,0.6444628238677979,-0.22296582162380219
1683474287687263000,4.135262939453125,2.087937355041504,0.7373143434524536,-0.24434609711170197
1683474287697295000,4.145295166015625,2.1569652557373047,0.7739662528038025,-0.28466320037841797
1683474287707252000,4.155251953125,2.230268955230713,0.7800748944282532,-0.36224308609962463
1683474287717284000,4.1652841796875,2.323120594024658,0.7764097452163696,-0.47219884395599365
1683474287727271700,4.175271728515625,2.4489588737487793,0.6621779203414917,-0.6126978397369385
1683474287737273000,4.185273193359375,2.5277602672576904,0.5002986192703247,-0.6884451508522034
1683474287747261000,4.195260986328125,2.58457088470459,0.3017674386501312,-0.7147123217582703
1683474287757292500,4.20529248046875,2.593733787536621,0.11850785464048386,-0.6670648455619812
1683474287767249700,4.215249755859375,2.574186086654663,-0.0024434609804302454,-0.5791002511978149
1683474287777281500,4.225281494140625,2.5778512954711914,-0.07024950534105301,-0.4966334402561188
1683474287787269000,4.23526904296875,2.5558602809906006,-0.11972958594560623,-0.423329621553421
1683474287797301200,4.24530126953125,2.5082128047943115,-0.15332718193531036,-0.3677408695220947
1683474287807258000,4.255258056640625,2.442239284515381,-0.1472185254096985,-0.3121521472930908
1683474287817290200,4.265290283203125,2.4104743003845215,-0.10506882518529892,-0.2535090744495392
1683474287827277800,4.27527783203125,2.420248031616211,-0.0659734457731247,-0.18509216606616974
1683474287837279200,4.285279296875,2.4416284561157227,-0.06414084881544113,-0.11362093687057495
1683474287847266800,4.295266845703125,2.5051584243774414,-0.08246681094169617,-0.0403171069920063
1683474287857297200,4.305297119140625,2.624277114868164,-0.1007927656173706,0.04214970022439957
1683474287867254800,4.3152548828125,2.8203649520874023,-0.12278391420841217,0.13072516024112701
1683474287877285600,4.32528564453125,3.056769609451294,-0.19486601650714874,0.23335053026676178
1683474287887274500,4.3352744140625,3.2473597526550293,-0.2877175211906433,0.34513887763023376
1683474287897275100,4.345275146484375,3.3231070041656494,-0.3384193480014801,0.4550946056842804
1683474287907263200,4.35526318359375,3.28523325920105,-0.3335324227809906,0.5448917746543884
1683474287917295400,4.36529541015625,3.1636710166931152,-0.3078760802745819,0.6023131608963013
1683474287927252200,4.375252197265625,3.0017917156219482,-0.29993483424186707,0.6218608021736145
1683474287937284600,4.38528466796875,2.824640989303589,-0.32498031854629517,0.6151412725448608
1683474287947272000,4.39527197265625,2.6566529273986816,-0.37201693654060364,0.6041457056999207
1683474287957274000,4.405274169921875,2.5051584243774414,-0.3830125033855438,0.6059783101081848
1683474287967261700,4.41526171875,2.3652701377868652,-0.3225368559360504,0.6224716901779175
1683474287977293600,4.42529345703125,2.2430970668792725,-0.21930062770843506,0.6505714654922485
1683474287987250700,4.435250732421875,2.1587977409362793,-0.09773843735456467,0.6872233748435974
1683474287997282800,4.44528271484375,2.1172590255737305,0.016493361443281174,0.7202101349830627
1683474288007270100,4.455270263671875,2.1117610931396484,0.10445795953273773,0.7354817390441895
1683474288017271800,4.465271728515625,2.122145891189575,0.17409659922122955,0.7165449261665344
1683474288027259400,4.47525927734375,2.1123719215393066,0.22296582162380219,0.6359107494354248
1683474288037291000,4.485291015625,2.0580050945281982,0.2028072625398636,0.5619960427284241
1683474288047278800,4.49527880859375,1.9517145156860352,0.14049901068210602,0.4856378734111786
1683474288057279000,4.505279052734375,1.778228759765625,0.04153883829712868,0.4086688458919525
1683474288067267800,4.515267822265625,1.5442672967910767,-0.07330382615327835,0.33597588539123535
1683474288077298400,4.52529833984375,1.2999212741851807,-0.20097467303276062,0.27122417092323303
1683474288087256800,4.5352568359375,1.0897835493087769,-0.3078760802745819,0.20341812074184418
1683474288097289000,4.5452890625,0.9272934198379517,-0.313373863697052,0.1111774742603302
1683474288107276300,4.5552763671875,0.8032878041267395,-0.25961771607398987,0.03420845419168472
1683474288117277700,4.565277587890625,0.6841690540313721,-0.20891591906547546,-0.00855211354792118
1683474288127265500,4.575265625,0.5674937963485718,-0.16493362188339233,-0.028099801391363144
1683474288137297400,4.58529736328125,0.4660901725292206,-0.12461651116609573,-0.03726277872920036
1683474288147254300,4.595254150390625,0.38606682419776917,-0.09712757170200348,-0.04092797264456749
1683474288157286400,4.605286376953125,0.31642818450927734,-0.08429940044879913,-0.039095375686883926
1683474288167274000,4.61527392578125,0.25045475363731384,-0.06902777403593063,-0.03481931984424591
1683474288177275600,4.625275634765625,0.18936823308467865,-0.04337143152952194,-0.029932396486401558
1683474288187263000,4.635262939453125,0.12889257073402405,-0.009162978269159794,-0.031154127791523933
1683474288197294800,4.645294921875,0.06108652427792549,0.036041051149368286,-0.03481931984424591
1683474288207252000,4.655251953125,-0.016493361443281174,0.08918632566928864,-0.04337143152952194
1683474288217283600,4.66528369140625,-0.08918632566928864,0.14538592100143433,-0.05253441259264946
1683474288227271700,4.675271728515625,-0.14294247329235077,0.1814269721508026,-0.06291911751031876
1683474288237272600,4.6852724609375,-0.17959438264369965,0.17898350954055786,-0.07513642311096191
1683474288247260700,4.6952607421875,-0.2015855312347412,0.15577064454555511,-0.08246681094169617
1683474288257292300,4.705292236328125,-0.21319197118282318,0.12339477986097336,-0.08735372871160507
1683474288267249700,4.715249755859375,-0.2119702398777008,0.08002334833145142,-0.09712757170200348
1683474288277281500,4.725281494140625,-0.2015855312347412,0.031154127791523933,-0.10812314599752426
1683474288287269000,4.73526904296875,-0.18325957655906677,-0.014049900695681572,-0.11056660860776901
1683474288297301000,4.745301025390625,-0.15882496535778046,-0.04764748737215996,-0.10201449692249298
1683474288307258000,4.755258056640625,-0.13500121235847473,-0.05497787147760391,-0.08429940044879913
1683474288317290000,4.7652900390625,-0.11911872029304504,-0.022602014243602753,-0.06902777403593063
1683474288327277800,4.77527783203125,-0.11728613078594208,-0.00733038317412138,-0.06291911751031876
1683474288337279200,4.785279296875,-0.11362093687057495,-0.005497787147760391,-0.05375614017248154
1683474288347266800,4.795266845703125,-0.10812314599752426,-0.00366519158706069,-0.04398229718208313
1683474288357298700,4.805298583984375,-0.10262536257505417,-0.0006108652451075613,-0.029932396486401558
1683474288367255600,4.815255615234375,-0.0910189226269722,0.0006108652451075613,-0.01466076634824276
1683474288377287400,4.825287353515625,-0.07208210229873657,-0.018325956538319588,0.0006108652451075613
1683474288387275000,4.83527490234375,-0.05192354694008827,-0.0659734457731247,0.014049900695681572
1683474288397276400,4.8452763671875,-0.03726277872920036,-0.11789698898792267,0.029932396486401558
1683474288407264300,4.85526416015625,-0.03237585723400116,-0.12889257073402405,0.04337143152952194
1683474288417296100,4.865296142578125,-0.030543262138962746,-0.0959058403968811,0.048258353024721146
1683474288427253200,4.875253173828125,-0.02687807008624077,-0.04459316283464432,0.04092797264456749
1683474288437285000,4.88528515625,-0.028099801391363144,0.0012217304902151227,0.019547687843441963
1683474288447273000,4.89527294921875,-0.03420845419168472,0.0354301854968071,-0.010995574295520782
1683474288457274000,4.905274169921875,-0.04703662544488907,0.04459316283464432,-0.045204028487205505
1683474288467262000,4.915261962890625,-0.05619960278272629,0.03420845419168472,-0.07941248267889023
1683474288477293600,4.92529345703125,-0.056810468435287476,0.025656340643763542,-0.10690141469240189
1683474288487250700,4.935250732421875,-0.05009094998240471,0.03237585723400116,-0.1258382350206375
1683474288497282800,4.94528271484375,-0.04153883829712868,0.05009094998240471,-0.13316862285137177
1683474288507270100,4.955270263671875,-0.03237585723400116,0.06352998316287994,-0.12950342893600464
1683474288517271600,4.965271484375,-0.024434609338641167,0.05742133408784866,-0.11911872029304504
1683474288527259400,4.97525927734375,-0.012217304669320583,0.04642575979232788,-0.10690141469240189
1683474288537291000,4.985291015625,0.006719517521560192,0.04153883829712868,-0.1062905490398407
1683474288547278800,4.99527880859375,0.028099801391363144,0.039095375686883926,-0.10690141469240189
1683474288557280000,5.005280029296875,0.045204028487205505,0.033597588539123535,-0.10506882518529892
1683474288567267800,5.015267822265625,0.05619960278272629,0.02321287989616394,-0.09346238523721695
1683474288577299700,5.0252998046875,0.06291911751031876,0.01771509274840355,-0.07880161702632904
1683474288587256800,5.0352568359375,0.06780604273080826,0.025045474991202354,-0.0659734457731247
1683474288597289000,5.0452890625,0.07452555745840073,0.036651913076639175,-0.0555887371301651
1683474288607276500,5.055276611328125,0.07819075137376785,0.0403171069920063,-0.04703662544488907
1683474288617277700,5.065277587890625,0.08246681094169617,0.0354301854968071,-0.04703662544488907
1683474288627265500,5.075265625,0.08979719132184982,0.033597588539123535,-0.054367005825042725
1683474288637297200,5.085297119140625,0.09712757170200348,0.028099801391363144,-0.07208210229873657
1683474288647254300,5.095254150390625,0.10323622822761536,0.012217304669320583,-0.09957103431224823
1683474288657286700,5.10528662109375,0.11056660860776901,-0.007941247895359993,-0.12889257073402405
1683474288667274000,5.11527392578125,0.1215621829032898,-0.02687807008624077,-0.15577064454555511
1683474288677275400,5.125275390625,0.13866640627384186,-0.03726277872920036,-0.17898350954055786
1683474288687263000,5.135262939453125,0.17470745742321014,-0.04581489413976669,-0.19425514340400696
1683474288697294800,5.145294921875,0.23151792585849762,-0.05742133408784866,-0.2015855312347412
1683474288707252000,5.155251953125,0.2974913716316223,-0.060475658625364304,-0.20830504596233368
1683474288717283800,5.165283935546875,0.3744603991508484,-0.04948008432984352,-0.21441370248794556
1683474288727271700,5.175271728515625,0.46181413531303406,-0.025045474991202354,-0.2168571650981903
1683474288737273000,5.185273193359375,0.5436700582504272,0.01466076634824276,-0.20952677726745605
1683474288747260700,5.1952607421875,0.6139195561408997,0.07024950534105301,-0.18570303916931152
1683474288757292500,5.20529248046875,0.6707300543785095,0.13255776464939117,-0.152105450630188
1683474288767249700,5.215249755859375,0.7244861721992493,0.17898350954055786,-0.10995574295520782
1683474288777281800,5.22528173828125,0.7635815739631653,0.1160643994808197,-0.10934487730264664
1683474288787269000,5.23526904296875,0.9089674949645996,-0.07208210229873657,-0.15882496535778046
1683474288797301000,5.245301025390625,1.1508700847625732,-0.2871066629886627,-0.2767219543457031
1683474288807258000,5.255258056640625,1.3267992734909058,-0.4593706727027893,-0.39645153284072876
1683474288817290500,5.26529052734375,1.470963478088379,-0.6304129362106323,-0.48747047781944275
1683474288827277800,5.27527783203125,1.6468926668167114,-0.8533787727355957,-0.5479460954666138
1683474288837278000,5.28527783203125,1.8832975625991821,-1.1142182350158691,-0.5955936312675476
1683474288847266800,5.295266845703125,2.1502456665039062,-1.341460108757019,-0.6389650702476501
1683474288857297200,5.305297119140625,2.3878722190856934,-1.451415777206421,-0.66584312915802
1683474288867255000,5.315255126953125,2.5314254760742188,-1.4202617406845093,-0.6627888083457947
1683474288877285600,5.32528564453125,2.556471109390259,-1.2608258724212646,-0.6243042945861816
1683474288887305000,5.335304931640625,2.4495697021484375,-1.0134254693984985,-0.5363397002220154
1683474288897275000,5.34527490234375,2.2064452171325684,-0.769690215587616,-0.4184426963329315
1683474288907263200,5.35526318359375,1.9120081663131714,-0.5296201705932617,-0.294437050819397
1683474288917294000,5.365294189453125,1.615127682685852,-0.06841690838336945,-0.15027284622192383
1683474288927252200,5.375252197265625,1.5735888481140137,0.2785545587539673,-0.09651670604944229
1683474288937284600,5.38528466796875,1.6120734214782715,0.5833762884140015,-0.05253441259264946
1683474288947272000,5.39527197265625,1.6774359941482544,0.7922922372817993,0.003054326167330146
1683474288957274000,5.405274169921875,1.7342463731765747,0.7336491346359253,0.08185594528913498
1683474288967261700,5.41526171875,1.7562376260757446,0.6475171446800232,0.13011430203914642
1683474288977293800,5.4252939453125,1.7525724172592163,0.6530149579048157,0.14782938361167908
1683474288987250700,5.435250732421875,1.748907208442688,0.759916365146637,0.14782938361167908
1683474288997282600,5.445282470703125,1.7544050216674805,0.9279043078422546,0.15821409225463867
1683474289007270100,5.455270263671875,1.7507398128509521,1.0109820365905762,0.21074850857257843
1683474289017271800,5.465271728515625,1.6951510906219482,0.6982190012931824,0.15577064454555511
1683474289027259400,5.47525927734375,1.587027907371521,0.24129177629947662,0.021380282938480377
1683474289037291300,5.485291259765625,1.4104878902435303,0.16554448008537292,-0.015882495790719986
1683474289047278800,5.49527880859375,1.2388347387313843,0.07635815441608429,-0.03237585723400116
1683474289057279700,5.50527978515625,1.1093312501907349,-0.0910189226269722,-0.014049900695681572
1683474289067267600,5.515267578125,1.0641272068023682,-0.2681698501110077,0.03420845419168472
1683474289077299700,5.5252998046875,1.1325441598892212,-0.43188172578811646,0.09346238523721695
1683474289087256800,5.5352568359375,1.2962560653686523,-0.5833762884140015,0.1612684279680252
1683474289097289000,5.5452890625,1.4691308736801147,-0.6780604124069214,0.24678955972194672
1683474289107276300,5.5552763671875,1.5931365489959717,-0.7354817390441895,0.33475416898727417
1683474289117278000,5.56527783203125,1.6560556888580322,-0.720820963382721,0.4331034719944
1683474289127265300,5.575265380859375,1.6725490093231201,-0.6395758986473083,0.5155702829360962
1683474289137297700,5.585297607421875,1.6725490093231201,-0.5467243790626526,0.5674937963485718
1683474289147254500,5.595254638671875,1.6743816137313843,-0.4355469346046448,0.6041457056999207
1683474289157286400,5.605286376953125,1.7049249410629272,-0.32498031854629517,0.6316346526145935
1683474289167274000,5.61527392578125,1.7825047969818115,-0.24678955972194672,0.6591235995292664
1683474289177275400,5.625275390625,1.9620991945266724,-0.24129177629947662,0.6963863968849182
1683474289187263000,5.635262939453125,2.3072381019592285,-0.2223549485206604,0.6890559792518616
1683474289197295000,5.645295166015625,2.6676485538482666,-0.16920967400074005,0.6664539575576782
1683474289207252000,5.655251953125,2.908329486846924,-0.23029619455337524,0.675616979598999
1683474289217282800,5.66528271484375,2.8069257736206055,-0.34636059403419495,0.66584312915802
1683474289227271400,5.675271484375,2.6028966903686523,-0.252287358045578,0.5900958180427551
1683474289237271600,5.685271484375,2.3817636966705322,0.45631635189056396,0.28038713335990906
1683474289247260400,5.695260498046875,2.147191286087036,0.9804387092590332,-0.00366519158706069
1683474289257291300,5.705291259765625,1.7122552394866943,1.3487904071807861,-0.23335053026676178
1683474289267249400,5.71524951171875,1.2596040964126587,1.2669345140457153,-0.3139847218990326
1683474289277280000,5.725280029296875,0.9877691268920898,0.8704829812049866,-0.2767219543457031
1683474289287268900,5.735268798828125,0.836885392665863,0.46181413531303406,-0.21930062770843506
1683474289297301200,5.74530126953125,0.7727445363998413,0.16004669666290283,-0.15882496535778046
1683474289307258000,5.755258056640625,0.7446447610855103,0.04642575979232788,-0.14905111491680145
1683474289317290000,5.7652900390625,0.7147123217582703,0.0403171069920063,-0.1820378452539444
1683474289327277800,5.77527783203125,0.6609562039375305,0.03237585723400116,-0.2168571650981903
1683474289337279000,5.785279052734375,0.5729916095733643,-0.05619960278272629,-0.21624629199504852
1683474289347266600,5.7952666015625,0.43615779280662537,-0.2021963894367218,-0.18997909128665924
1683474289357298400,5.80529833984375,0.2791654169559479,-0.3237585723400116,-0.15515977144241333
1683474289367255600,5.815255615234375,0.14844025671482086,-0.3781255781650543,-0.11667526513338089
1683474289377287700,5.82528759765625,0.05375614017248154,-0.3274237811565399,-0.07757988572120667
1683474289387275300,5.835275146484375,-0.009162978269159794,-0.20952677726745605,-0.02932153269648552
1683474289397276400,5.8452763671875,-0.04948008432984352,-0.06658431142568588,0.03848451003432274
1683474289407264300,5.85526416015625,-0.07635815441608429,0.01710422709584236,0.11056660860776901
1683474289417296000,5.8652958984375,-0.10262536257505417,-0.0012217304902151227,0.15332718193531036
1683474289427253200,5.875253173828125,-0.11972958594560623,-0.018325956538319588,0.19486601650714874
1683474289437284900,5.885284912109375,-0.16432274878025055,0.02626720629632473,0.251676470041275
1683474289447273000,5.89527294921875,-0.19425514340400696,0.08979719132184982,0.29626965522766113
1683474289457274000,5.905274169921875,-0.22479841113090515,0.08429940044879913,0.31093040108680725
1683474289467262000,5.915261962890625,-0.24923302233219147,0.05864306539297104,0.34513887763023376
1683474289477293600,5.92529345703125,-0.25961771607398987,0.01771509274840355,0.3732386529445648
1683474289487250700,5.935250732421875,-0.2321287989616394,0.039706241339445114,0.3927863538265228
1683474289497282800,5.94528271484375,-0.18875735998153687,0.08979719132184982,0.4056145250797272
1683474289507270400,5.9552705078125,-0.13316862285137177,0.09896016865968704,0.4147774875164032
1683474289517271600,5.965271484375,-0.10934487730264664,0.1215621829032898,0.40744712948799133
1683474289527259400,5.97525927734375,-0.09346238523721695,0.16493362188339233,0.3897320330142975
1683474289537291000,5.985291015625,-0.06841690838336945,0.17898350954055786,0.36651915311813354
1683474289547279000,5.995279052734375,-0.04092797264456749,0.15271630883216858,0.33169981837272644
1683474289557280300,6.0052802734375,-0.04092797264456749,0.11178833991289139,0.2767219543457031
1683474289567267600,6.015267578125,-0.05192354694008827,0.033597588539123535,0.2168571650981903
1683474289577299700,6.0252998046875,-0.06536258012056351,-0.02932153269648552,0.1661553531885147
1683474289587256800,6.0352568359375,-0.07757988572120667,-0.05253441259264946,0.1215621829032898
1683474289597288400,6.045288330078125,-0.09773843735456467,-0.05192354694008827,0.08307767659425735
1683474289607276300,6.0552763671875,-0.11911872029304504,-0.04581489413976669,0.04703662544488907
1683474289617278000,6.06527783203125,-0.13500121235847473,-0.0403171069920063,0.01710422709584236
1683474289627265500,6.075265625,-0.14477506279945374,-0.04153883829712868,-0.00855211354792118
1683474289637297200,6.085297119140625,-0.1459967941045761,-0.04764748737215996,-0.030543262138962746
1683474289647254300,6.095254150390625,-0.1417207419872284,-0.04703662544488907,-0.05253441259264946
1683474289657286400,6.105286376953125,-0.13072516024112701,-0.04214970022439957,-0.0708603709936142
1683474289667274000,6.11527392578125,-0.11301007121801376,-0.03176499158143997,-0.08002334833145142
1683474289677275400,6.125275390625,-0.08979719132184982,0.005497787147760391,-0.07330382615327835
1683474289687263000,6.135262939453125,-0.06414084881544113,0.05497787147760391,-0.04092797264456749
1683474289697295000,6.145295166015625,-0.036651913076639175,0.09529497474431992,-0.0012217304902151227
1683474289707252000,6.155251953125,-0.006719517521560192,0.13377949595451355,0.027488935738801956
1683474289717283600,6.16528369140625,0.02626720629632473,0.15393804013729095,0.036651913076639175
1683474289727271700,6.175271728515625,0.0507018156349659,0.13988813757896423,0.02932153269648552
1683474289737272800,6.18527294921875,0.06780604273080826,0.09957103431224823,0.01160643994808197
1683474289747260700,6.1952607421875,0.07819075137376785,0.04764748737215996,-0.015882495790719986
1683474289757292300,6.205292236328125,0.08185594528913498,0.0012217304902151227,-0.04337143152952194
1683474289767249700,6.215249755859375,0.08185594528913498,-0.033597588539123535,-0.06780604273080826
1683474289777281500,6.225281494140625,0.07513642311096191,-0.05497787147760391,-0.08002334833145142
1683474289787269000,6.23526904296875,0.0659734457731247,-0.059864792972803116,-0.08002334833145142
1683474289797301000,6.245301025390625,0.05864306539297104,-0.03176499158143997,-0.06475171446800232
1683474289807258400,6.25525830078125,0.059864792972803116,-0.00855211354792118,-0.04948008432984352
1683474289817290200,6.265290283203125,0.05803219974040985,0.015882495790719986,-0.03481931984424591
1683474289827277800,6.27527783203125,0.05375614017248154,0.04337143152952194,-0.019547687843441963
1683474289837279000,6.285279052734375,0.0507018156349659,0.06169738993048668,-0.0024434609804302454
1683474289847266800,6.295266845703125,0.04459316283464432,0.06169738993048668,0.01160643994808197
1683474289857297200,6.305297119140625,0.03726277872920036,0.051312681287527084,0.02321287989616394
1683474289867254800,6.3152548828125,0.030543262138962746,0.0403171069920063,0.02871066704392433
1683474289877286400,6.325286376953125,0.021380282938480377,0.03420845419168472,0.031154127791523933
1683474289887274500,6.3352744140625,0.007941247895359993,0.02687807008624077,0.033597588539123535
1683474289897275600,6.345275634765625,-0.003054326167330146,0.030543262138962746,0.04214970022439957
1683474289907263200,6.35526318359375,-0.00733038317412138,0.04459316283464432,0.05497787147760391
1683474289917295400,6.36529541015625,-0.01038470957428217,0.05864306539297104,0.06536258012056351
1683474289927252200,6.375252197265625,-0.01160643994808197,0.06780604273080826,0.06902777403593063
1683474289937284400,6.385284423828125,-0.015271631069481373,0.07147123664617538,0.06841690838336945
1683474289947272000,6.39527197265625,-0.02015855349600315,0.06780604273080826,0.05864306539297104
1683474289957273900,6.40527392578125,-0.025045474991202354,0.06841690838336945,0.03787364438176155
1683474289967261700,6.41526171875,-0.029932396486401558,0.06291911751031876,0.01160643994808197
1683474289977293800,6.4252939453125,-0.039706241339445114,0.04764748737215996,-0.016493361443281174
1683474289987250700,6.435250732421875,-0.05314527451992035,0.039706241339445114,-0.03237585723400116
1683474289997282800,6.44528271484375,-0.06536258012056351,0.051312681287527084,-0.04764748737215996
1683474290007270100,6.455270263671875,-0.07330382615327835,0.06352998316287994,-0.051312681287527084
1683474290017271800,6.465271728515625,-0.07880161702632904,0.06902777403593063,-0.0507018156349659
1683474290027259400,6.47525927734375,-0.0861319974064827,0.0861319974064827,-0.042760565876960754
1683474290037291000,6.485291015625,-0.09957103431224823,0.11789698898792267,-0.028099801391363144
1683474290047278800,6.49527880859375,-0.11484266817569733,0.14966198801994324,-0.01160643994808197
1683474290057280000,6.505280029296875,-0.12400564551353455,0.16432274878025055,0.004886921960860491
1683474290067267800,6.515267822265625,-0.1313360333442688,0.16065755486488342,0.014049900695681572
1683474290077299700,6.5252998046875,-0.13988813757896423,0.13072516024112701,0.02015855349600315
1683474290087256800,6.5352568359375,-0.1466076523065567,0.08368854224681854,0.01466076634824276
1683474290097289200,6.545289306640625,-0.1411098688840866,0.01160643994808197,0.005497787147760391
1683474290107276300,6.5552763671875,-0.1313360333442688,-0.02932153269648552,0.00427605677396059
1683474290117277700,6.565277587890625,-0.12767083942890167,-0.07024950534105301,0.009773843921720982
1683474290127265500,6.575265625,-0.1368338167667389,-0.08796459436416626,0.02382374368607998
1683474290137297400,6.58529736328125,-0.16065755486488342,-0.08735372871160507,0.04092797264456749
1683474290147254500,6.595254638671875,-0.1918116807937622,-0.0708603709936142,0.05192354694008827
1683474290157286400,6.605286376953125,-0.22357667982578278,-0.0507018156349659,0.05864306539297104
1683474290167273700,6.615273681640625,-0.2632829248905182,-0.0507018156349659,0.06963863968849182
1683474290177275400,6.625275390625,-0.3335324227809906,-0.10506882518529892,0.09468411654233932
1683474290187263000,6.635262939453125,-0.4349360466003418,-0.20830504596233368,0.12828169763088226
1683474290197294800,6.645294921875,-0.5290092825889587,-0.29993483424186707,0.14844025671482086
1683474290207252000,6.655251953125,-0.5858197808265686,-0.3549126982688904,0.13927727937698364
1683474290217284000,6.6652841796875,-0.6194173693656921,-0.3830125033855438,0.11850785464048386
1683474290227271700,6.675271728515625,-0.6633996367454529,-0.37751471996307373,0.10384709388017654
1683474290237272600,6.6852724609375,-0.7202101349830627,-0.3530801236629486,0.10751228034496307
1683474290247291000,6.695290771484375,-0.7843509912490845,-0.36651915311813354,0.1362229436635971
1683474290257291000,6.705291015625,-0.8753699064254761,-0.3995058834552765,0.17104226350784302
1683474290267249400,6.71524951171875,-1.0030407905578613,-0.39706242084503174,0.18631389737129211
1683474290277280000,6.725280029296875,-1.1539244651794434,-0.3885102868080139,0.17837265133857727
1683474290287268900,6.735268798828125,-1.3359622955322266,-0.4050036668777466,0.1472185254096985
1683474290297299700,6.7452998046875,-1.5467108488082886,-0.43615779280662537,0.10934487730264664
1683474290307258000,6.755258056640625,-1.757459282875061,-0.46670106053352356,0.1007927656173706
1683474290317289000,6.7652890625,-1.976149082183838,-0.5283984541893005,0.13316862285137177
1683474290327277800,6.77527783203125,-2.1783454418182373,-0.5693264007568359,0.16798794269561768
1683474290337278200,6.7852783203125,-2.3316726684570312,-0.5229006409645081,0.1722639948129654
1683474290347266600,6.7952666015625,-2.4391849040985107,-0.3854559659957886,0.13500121235847473
1683474290357297200,6.805297119140625,-2.514932155609131,-0.17837265133857727,0.060475658625364304
1683474290367255600,6.815255615234375,-2.574186086654663,0.09040805697441101,-0.028099801391363144
1683474290377286400,6.825286376953125,-2.634661912918091,0.35185837745666504,-0.10018189996480942
1683474290387275000,6.83527490234375,-2.752558708190918,0.6145304441452026,-0.15332718193531036
1683474290397275400,6.845275390625,-2.8399124145507812,0.7379252314567566,-0.19486601650714874
1683474290407264000,6.855263916015625,-2.900999069213867,0.7318165898323059,-0.19486601650714874
1683474290417296100,6.865296142578125,-2.9468140602111816,0.6279694437980652,-0.1508837193250656
1683474290427253200,6.875253173828125,-2.973691940307617,0.5363397002220154,-0.09285151958465576
1683474290437285000,6.88528515625,-2.995072364807129,0.5155702829360962,-0.02871066704392433
1683474290447272700,6.895272705078125,-2.9944615364074707,0.484416127204895,0.04642575979232788
1683474290457274000,6.905274169921875,-2.9859092235565186,0.4715879559516907,0.09712757170200348
1683474290467261700,6.91526171875,-2.979189872741699,0.44104471802711487,0.12339477986097336
1683474290477293800,6.9252939453125,-2.9798007011413574,0.3677408695220947,0.12889257073402405
1683474290487250700,6.935250732421875,-2.9907963275909424,0.24068090319633484,0.10751228034496307
1683474290497282800,6.94528271484375,-3.0268373489379883,0.0910189226269722,0.05009094998240471
1683474290507270400,6.9552705078125,-3.112969398498535,-0.036041051149368286,-0.02932153269648552
1683474290517271800,6.965271728515625,-3.1508429050445557,-0.05192354694008827,-0.13072516024112701
1683474290527259400,6.97525927734375,-3.143512487411499,-0.027488935738801956,-0.23579397797584534
1683474290537291300,6.985291259765625,-3.0054569244384766,-0.009773843921720982,-0.30543261766433716
1683474290547278800,6.99527880859375,-2.7629435062408447,0.003054326167330146,-0.3274237811565399
1683474290557279000,7.005279052734375,-2.4666738510131836,0.0006108652451075613,-0.31459560990333557
1683474290567267600,7.015267578125,-2.160630464553833,-0.01771509274840355,-0.26633724570274353
1683474290577300000,7.025300048828125,-1.890017032623291,-0.03848451003432274,-0.18997909128665924
1683474290587256800,7.0352568359375,-1.6768250465393066,-0.05619960278272629,-0.10201449692249298
1683474290597289000,7.0452890625,-1.5338826179504395,-0.07513642311096191,-0.010995574295520782
1683474290607276300,7.0552763671875,-1.4312572479248047,-0.13316862285137177,0.08429940044879913
1683474290617278000,7.06527783203125,-1.3292428255081177,-0.18387043476104736,0.15882496535778046
1683474290627265300,7.075265380859375,-1.2131783962249756,-0.19853121042251587,0.2076941877603531
1683474290637297400,7.08529736328125,-1.1160508394241333,-0.17959438264369965,0.22846360504627228
1683474290647254300,7.095254150390625,-1.064738154411316,-0.17104226350784302,0.26083946228027344
1683474290657286400,7.105286376953125,-1.0531316995620728,-0.21380282938480377,0.36651915311813354
1683474290667274000,7.11527392578125,-1.014647126197815,-0.042760565876960754,0.4447098970413208
1683474290677275400,7.125275390625,-0.9486737251281738,0.3084869384765625,0.5180137157440186
1683474290687263000,7.135262939453125,-0.8020660877227783,0.6976081132888794,0.6163630485534668
1683474290697295000,7.145295166015625,-0.7018841505050659,0.7654141783714294,0.675616979598999
1683474290707252000,7.155251953125,-0.6279694437980652,0.7281513810157776,0.7287622094154358
1683474290717283600,7.16528369140625,-0.5699372887611389,0.6291912198066711,0.7580837607383728
1683474290727271700,7.175271728515625,-0.5222898125648499,0.48747047781944275,0.6591235995292664
1683474290737272800,7.18527294921875,-0.5082398653030396,0.37140607833862305,0.3646865487098694
1683474290747261000,7.195260986328125,-0.46731191873550415,0.23029619455337524,0.04581489413976669
1683474290757292500,7.20529248046875,-0.36224308609962463,0.08918632566928864,-0.15882496535778046
1683474290767249700,7.215249755859375,-0.26022860407829285,0.0354301854968071,-0.22052235901355743
1683474290777281500,7.225281494140625,-0.2278527319431305,0.0659734457731247,-0.192422553896904
1683474290787269000,7.23526904296875,-0.21135938167572021,0.15760323405265808,-0.1459967941045761
1683474290797301200,7.24530126953125,-0.17409659922122955,0.24617868661880493,-0.11423180252313614
1683474290807258000,7.255258056640625,-0.12828169763088226,0.2736676335334778,-0.09468411654233932
1683474290817290200,7.265290283203125,-0.08979719132184982,0.22846360504627228,-0.08002334833145142
1683474290827277800,7.27527783203125,-0.051312681287527084,0.13561208546161652,-0.06658431142568588
1683474290837279000,7.285279052734375,-0.007941247895359993,0.021380282938480377,-0.04581489413976669
1683474290847266800,7.295266845703125,0.03298672288656235,-0.0959058403968811,-0.031154127791523933
1683474290857297000,7.305296875,0.05192354694008827,-0.251676470041275,-0.05864306539297104
1683474290867254800,7.3152548828125,0.054367005825042725,-0.2742784917354584,-0.054367005825042725
1683474290877286700,7.32528662109375,0.05864306539297104,-0.23151792585849762,-0.03726277872920036
1683474290887301000,7.335301025390625,0.07941248267889023,-0.2272418737411499,-0.04214970022439957
1683474290897275100,7.345275146484375,0.1062905490398407,-0.21624629199504852,-0.06719517707824707
1683474290907263200,7.35526318359375,0.13072516024112701,-0.19120082259178162,-0.11056660860776901
1683474290917295400,7.36529541015625,0.15515977144241333,-0.14905111491680145,-0.1569923609495163
1683474290927252200,7.375252197265625,0.1869247704744339,-0.1007927656173706,-0.1869247704744339
1683474290937284400,7.385284423828125,0.23029619455337524,-0.06230825558304787,-0.1869247704744339
1683474290947272000,7.39527197265625,0.2883284091949463,-0.0403171069920063,-0.16920967400074005
1683474290957274000,7.405274169921875,0.35185837745666504,-0.02321287989616394,-0.14416420459747314
1683474290967261700,7.41526171875,0.38667771220207214,-0.006108652334660292,-0.12278391420841217
1683474290977293600,7.42529345703125,0.3781255781650543,0.021380282938480377,-0.09040805697441101
1683474290987250700,7.435250732421875,0.36651915311813354,0.0354301854968071,-0.07880161702632904
1683474290996868600,7.44486865234375,0.3579670190811157,0.04214970022439957,-0.07208210229873657
1683474291006856200,7.454856201171875,0.35063666105270386,0.0354301854968071,-0.07147123664617538
1683474291016857600,7.464857666015625,0.3439171314239502,0.01038470957428217,-0.08002334833145142
1683474291026845200,7.47484521484375,0.31520646810531616,-0.00855211354792118,-0.1111774742603302
1683474291036877000,7.484876953125,0.28099802136421204,-0.004886921960860491,-0.14966198801994324
1683474291046864600,7.49486474609375,0.26022860407829285,0.02626720629632473,-0.16798794269561768
1683474291056866300,7.5048662109375,0.26083946228027344,0.06841690838336945,-0.15454891324043274
1683474291066853600,7.514853515625,0.27000242471694946,0.11789698898792267,-0.12278391420841217
1683474291076885500,7.524885498046875,0.26939156651496887,0.16554448008537292,-0.08185594528913498
1683474291086843000,7.5348427734375,0.252287358045578,0.18020524084568024,-0.036651913076639175
1683474291096874800,7.544874755859375,0.23090706765651703,0.17348572611808777,0.0006108652451075613
1683474291106862300,7.5548623046875,0.2064724564552307,0.15577064454555511,0.02626720629632473
1683474291116863700,7.56486376953125,0.18020524084568024,0.12950342893600464,0.036651913076639175
1683474291126851300,7.574851318359375,0.15271630883216858,0.09468411654233932,0.02626720629632473
1683474291136883500,7.584883544921875,0.12828169763088226,0.05803219974040985,0.0024434609804302454
1683474291146840300,7.59484033203125,0.11484266817569733,0.02321287989616394,-0.022602014243602753
1683474291156872200,7.6048720703125,0.10812314599752426,-0.006108652334660292,-0.03848451003432274
1683474291166860000,7.614860107421875,0.10323622822761536,-0.02382374368607998,-0.04764748737215996
1683474291176861200,7.624861083984375,0.09651670604944229,-0.025045474991202354,-0.056810468435287476
1683474291186849000,7.63484912109375,0.08246681094169617,-0.009162978269159794,-0.06841690838336945
1683474291196880600,7.644880615234375,0.06475171446800232,0.015882495790719986,-0.07819075137376785
1683474291206838000,7.654838134765625,0.04886921867728233,0.029932396486401558,-0.08857546001672745
1683474291216869600,7.66486962890625,0.039706241339445114,0.029932396486401558,-0.08979719132184982
1683474291226857500,7.674857421875,0.031154127791523933,0.00855211354792118,-0.09040805697441101
1683474291236858600,7.684858642578125,0.019547687843441963,0.015271631069481373,-0.08307767659425735
1683474291246846500,7.694846435546875,0.00733038317412138,0.036041051149368286,-0.08002334833145142
1683474291256878300,7.70487841796875,-0.0006108652451075613,0.05375614017248154,-0.0806342139840126
1683474291266835500,7.71483544921875,-0.003054326167330146,0.05803219974040985,-0.07941248267889023
1683474291276867000,7.7248671875,-0.010995574295520782,0.036041051149368286,-0.07757988572120667
1683474291286855000,7.73485498046875,-0.01771509274840355,-0.001832595793530345,-0.08002334833145142
1683474291296886800,7.74488671875,-0.02382374368607998,-0.04153883829712868,-0.08246681094169617
1683474291306844000,7.754843994140625,-0.027488935738801956,-0.07941248267889023,-0.08368854224681854
1683474291316875800,7.764875732421875,-0.02626720629632473,-0.1160643994808197,-0.08185594528913498
1683474291326863600,7.774863525390625,-0.02076941914856434,-0.13072516024112701,-0.07880161702632904
1683474291336865000,7.784864990234375,-0.00855211354792118,-0.11850785464048386,-0.07391469180583954
1683474291346852600,7.7948525390625,0.00366519158706069,-0.07696902006864548,-0.06780604273080826
1683474291356884200,7.80488427734375,0.01466076634824276,-0.015882495790719986,-0.05314527451992035
1683474291366841600,7.814841552734375,0.02382374368607998,0.03787364438176155,-0.0354301854968071
1683474291376873200,7.824873291015625,0.03420845419168472,0.07208210229873657,-0.018936822190880775
1683474291386861000,7.834861083984375,0.036651913076639175,0.09285151958465576,-0.004886921960860491
1683474291396862200,7.8448623046875,0.03481931984424591,0.1007927656173706,0.00427605677396059
1683474291406850000,7.85485009765625,0.036651913076639175,0.09285151958465576,0.010995574295520782
1683474291416882000,7.8648818359375,0.04153883829712868,0.08002334833145142,0.02076941914856434
1683474291426839000,7.874839111328125,0.04703662544488907,0.06108652427792549,0.02626720629632473
1683474291436870700,7.88487060546875,0.0403171069920063,0.027488935738801956,0.028099801391363144
1683474291446858500,7.8948583984375,0.025045474991202354,-0.0012217304902151227,0.022602014243602753
1683474291456860200,7.904860107421875,0.00427605677396059,0.00855211354792118,0.00366519158706069
1683474291466847700,7.91484765625,-0.012217304669320583,0.05253441259264946,-0.025656340643763542
1683474291476879400,7.92487939453125,-0.021991148591041565,0.1111774742603302,-0.04459316283464432
1683474291486836700,7.934836669921875,-0.02932153269648552,0.1667662113904953,-0.0507018156349659
1683474291496868400,7.944868408203125,-0.036651913076639175,0.22357667982578278,-0.0507018156349659
1683474291506856200,7.954856201171875,-0.04337143152952194,0.29077184200286865,-0.04459316283464432
1683474291516857300,7.964857421875,-0.04459316283464432,0.3591887652873993,-0.03176499158143997
1683474291526845200,7.97484521484375,-0.0555887371301651,0.3927863538265228,-0.016493361443281174
1683474291536877300,7.984877197265625,-0.07208210229873657,0.37140607833862305,-0.0006108652451075613
1683474291546864600,7.99486474609375,-0.08124507963657379,0.32009339332580566,0.022602014243602753
1683474291556865800,8.00486572265625,-0.07391469180583954,0.28649580478668213,0.045204028487205505
1683474291566853600,8.014853515625,-0.05497787147760391,0.3078760802745819,0.09224065393209457
1683474291576885500,8.024885498046874,-0.06230825558304787,0.2993239760398865,0.1160643994808197
1683474291586843000,8.0348427734375,-0.010995574295520782,0.25045475363731384,0.1319468915462494
1683474291596874500,8.04487451171875,0.11728613078594208,0.16432274878025055,0.13805554807186127
1683474291606862300,8.0548623046875,0.09346238523721695,0.031154127791523933,0.12339477986097336
1683474291616863000,8.064863037109374,0.015271631069481373,-0.10812314599752426,0.10934487730264664
1683474291626851300,8.074851318359375,-0.022602014243602753,-0.19058994948863983,0.08368854224681854
1683474291636883200,8.08488330078125,0.024434609338641167,-0.13561208546161652,0.02871066704392433
1683474291646840300,8.09484033203125,0.10873401165008545,0.11301007121801376,-0.016493361443281174
1683474291656872200,8.1048720703125,0.2742784917354584,0.5241223573684692,-0.08185594528913498
1683474291666860000,8.114860107421874,0.3549126982688904,0.5626068711280823,-0.09957103431224823
1683474291676860200,8.124860107421876,0.36163222789764404,0.3579670190811157,-0.0354301854968071
1683474291686849000,8.13484912109375,0.5229006409645081,0.5583308339118958,-0.11056660860776901
1683474291696880600,8.144880615234374,0.66584312915802,0.5564982295036316,-0.1661553531885147
1683474291706838000,8.154838134765624,0.7635815739631653,0.5381723046302795,-0.21441370248794556
1683474291716868600,8.16486865234375,0.5552765130996704,0.2968805134296417,-0.1569923609495163
1683474291726857700,8.174857666015624,0.17776179313659668,0.05375614017248154,-0.006719517521560192
1683474291736859100,8.184859130859374,-0.11911872029304504,-0.14905111491680145,0.15332718193531036
1683474291746846500,8.194846435546875,-0.1160643994808197,-0.34208452701568604,0.24373523890972137
1683474291756878300,8.20487841796875,0.0555887371301651,-0.47708576917648315,0.29138273000717163
1683474291766835500,8.21483544921875,0.17470745742321014,-0.5180137157440186,0.2877175211906433
1683474291776867600,8.22486767578125,0.1411098688840866,-0.40072759985923767,0.23396138846874237
1683474291786855200,8.234855224609374,0.08735372871160507,-0.4386012554168701,0.20463985204696655
1683474291796886800,8.24488671875,0.014049900695681572,-0.7971791625022888,0.16432274878025055
1683474291806844200,8.25484423828125,-0.0403171069920063,-0.9608910083770752,0.21930062770843506
1683474291816876000,8.2648759765625,-0.012828170321881771,-0.7238753437995911,0.22296582162380219
1683474291826863600,8.274863525390625,-0.03298672288656235,-0.2321287989616394,0.13866640627384186
1683474291836865000,8.284864990234375,0.02687807008624077,0.06352998316287994,0.04581489413976669
1683474291846852600,8.2948525390625,0.11362093687057495,0.001832595793530345,-0.06658431142568588
1683474291856883500,8.304883544921875,0.13011430203914642,-0.18936823308467865,-0.14416420459747314
1683474291866840600,8.314840576171875,0,-0.13927727937698364,-0.22296582162380219
1683474291876872200,8.3248720703125,-0.06414084881544113,0.06963863968849182,-0.24129177629947662
1683474291886860300,8.3348603515625,-0.07391469180583954,0.32009339332580566,-0.2687807083129883
1683474291896862000,8.344862060546875,-0.08185594528913498,0.4990769028663635,-0.182648703455925
1683474291906849300,8.354849365234376,-0.04703662544488907,0.5552765130996704,-0.039095375686883926
1683474291916881000,8.364880859375,0.04581489413976669,0.5412266254425049,0.09040805697441101
1683474291926838300,8.37483837890625,0.15760323405265808,0.46364670991897583,0.15454891324043274
1683474291936870400,8.384870361328124,0.25595253705978394,0.5149593949317932,0.17470745742321014
1683474291946858000,8.39485791015625,0.26450464129447937,0.35124751925468445,0.11301007121801376
1683474291956859600,8.404859619140625,0.18997909128665924,0.07147123664617538,0.13805554807186127
1683474291966847700,8.41484765625,0.1459967941045761,-0.05497787147760391,0.1814269721508026
1683474291976879400,8.42487939453125,0.19914206862449646,0.05192354694008827,0.2278527319431305
1683474291986836700,8.434836669921875,0.31581732630729675,0.4856378734111786,0.2993239760398865
1683474291996868400,8.444868408203124,0.3494149148464203,0.9724974632263184,0.22968533635139465
1683474292006856200,8.454856201171875,0.32559117674827576,1.1453723907470703,0.11301007121801376
1683474292016857600,8.464857666015625,0.28588494658470154,1.0415252447128296,0.04153883829712868
1683474292026845200,8.47484521484375,0.21807889640331268,0.789237916469574,0.027488935738801956
1683474292036876800,8.484876708984375,0.1618792861700058,0.5192354321479797,0.04642575979232788
1683474292046864600,8.49486474609375,0.11423180252313614,0.35674530267715454,0.06169738993048668
1683474292056866000,8.504865966796874,0.05803219974040985,0.3066543638706207,0.06719517707824707
1683474292066854000,8.51485400390625,-0.00427605677396059,0.3701843321323395,0.059864792972803116
1683474292076885200,8.52488525390625,-0.03787364438176155,0.4911356568336487,0.04092797264456749
1683474292086843000,8.5348427734375,-0.04214970022439957,0.5687155723571777,0.024434609338641167
1683474292096874800,8.544874755859375,-0.03481931984424591,0.5619960427284241,0.005497787147760391
1683474292106862300,8.5548623046875,-0.021380282938480377,0.4899139404296875,-0.02626720629632473
1683474292116863500,8.564863525390624,0,0.35613444447517395,-0.042760565876960754
1683474292126851300,8.574851318359375,0.021991148591041565,0.17592918872833252,-0.05253441259264946
1683474292136883200,8.58488330078125,0.029932396486401558,0.09224065393209457,-0.05192354694008827
1683474292146840300,8.59484033203125,0.001832595793530345,0.1563815027475357,-0.018936822190880775
1683474292156872000,8.604871826171875,-0.08857546001672745,0.3543018400669098,-0.021380282938480377
1683474292166860000,8.614860107421874,-0.12400564551353455,0.5192354321479797,-0.01466076634824276
1683474292176861200,8.624861083984374,-0.1313360333442688,0.646906316280365,0.004886921960860491
1683474292186849000,8.63484912109375,-0.12400564551353455,0.7122688889503479,0.02687807008624077
1683474292196880600,8.644880615234374,-0.1215621829032898,0.7391469478607178,0.03481931984424591
1683474292206837800,8.654837646484374,-0.14844025671482086,0.808174729347229,0.03237585723400116
1683474292216869600,8.66486962890625,-0.17043140530586243,0.9584475755691528,0.04153883829712868
1683474292226857500,8.674857421875,-0.1569923609495163,1.1606439352035522,0.06841690838336945
1683474292236857000,8.684857177734376,-0.12339477986097336,1.3420709371566772,0.10445795953273773
1683474292246847000,8.694846923828125,-0.09957103431224823,1.4526375532150269,0.1368338167667389
1683474292256876800,8.704876708984376,-0.08185594528913498,1.492343783378601,0.16065755486488342
1683474292266835500,8.71483544921875,-0.06230825558304787,1.4703526496887207,0.16798794269561768
1683474292276865800,8.72486572265625,-0.045204028487205505,1.3652838468551636,0.15577064454555511
1683474292286855000,8.73485498046875,-0.02932153269648552,1.218676209449768,0.12889257073402405
1683474292296885500,8.744885498046875,-0.016493361443281174,1.091616153717041,0.08124507963657379
1683474292306844000,8.754843994140625,-0.00855211354792118,1.0201449394226074,0.01710422709584236
1683474292316874500,8.76487451171875,-0.015882495790719986,0.99876469373703,-0.04459316283464432
1683474292326863600,8.774863525390625,-0.01710422709584236,0.9877691268920898,-0.152105450630188
1683474292336863700,8.78486376953125,-0.01038470957428217,1.1172724962234497,-0.24862214922904968
1683474292346655200,8.7946552734375,-0.0024434609804302454,1.302364706993103,-0.3078760802745819
1683474292362368800,8.81036865234375,-0.0024434609804302454,1.302364706993103,-0.3078760802745819
1683474292372358100,8.820358154296875,-0.0024434609804302454,1.302364706993103,-0.3078760802745819
1683474292382230000,8.83022998046875,-0.0024434609804302454,1.302364706993103,-0.3078760802745819
1683474292392415500,8.84041552734375,-0.0024434609804302454,1.302364706993103,-0.3078760802745819
1683474292402445300,8.8504453125,-0.0024434609804302454,1.302364706993103,-0.3078760802745819
1683474292412434700,8.8604345703125,-0.0024434609804302454,1.302364706993103,-0.3078760802745819
1683474292422434600,8.8704345703125,-0.0024434609804302454,1.302364706993103,-0.3078760802745819
1683474292432423700,8.880423583984374,-0.0024434609804302454,1.302364706993103,-0.3078760802745819
1683474292442454300,8.890454345703125,0.02076941914856434,0.2571742534637451,-0.2822197377681732
1683474292452443400,8.900443359375,0.028099801391363144,0.16249015927314758,-0.2791654169559479
1683474292462443300,8.910443359375,0.0403171069920063,0.08368854224681854,-0.294437050819397
1683474292472432400,8.920432373046875,0.05253441259264946,-0.005497787147760391,-0.3225368559360504
1683474292482432500,8.9304326171875,0.07330382615327835,-0.05742133408784866,-0.3494149148464203
1683474292492421600,8.940421630859374,0.06963863968849182,-0.08979719132184982,-0.3744603991508484
1683474292502451700,8.95045166015625,0.06780604273080826,-0.14294247329235077,-0.3885102868080139
1683474292512410400,8.960410400390625,0.08429940044879913,-0.1966986060142517,-0.3982841372489929
1683474292522441000,8.97044091796875,0.05497787147760391,-0.2816088795661926,-0.38240164518356323
1683474292532429800,8.980429931640625,0.04214970022439957,-0.40256020426750183,-0.375071257352829
1683474292542459600,8.990459716796876,0.05375614017248154,-0.45875978469848633,-0.38117989897727966
1683474292552418800,9.000418701171874,0.06169738993048668,-0.40133845806121826,-0.3933972120285034
1683474292562449200,9.01044921875,0.0708603709936142,-0.28955012559890747,-0.394008070230484
1683474292572438500,9.0204384765625,0.05864306539297104,-0.23640485107898712,-0.38117989897727966
1683474292582438400,9.0304384765625,0.03481931984424591,-0.2125810980796814,-0.36590829491615295
1683474292592427300,9.04042724609375,0.01466076634824276,-0.18509216606616974,-0.35552358627319336
1683474292602457900,9.050457763671876,0.00366519158706069,-0.13744467496871948,-0.34086281061172485
1683474292612446700,9.06044677734375,0,-0.10201449692249298,-0.31642818450927734
1683474292622446600,9.070446533203125,0.006108652334660292,-0.10873401165008545,-0.28649580478668213
1683474292632436000,9.08043603515625,0.0024434609804302454,-0.1258382350206375,-0.2535090744495392
1683474292642435800,9.090435791015626,-0.01038470957428217,-0.0910189226269722,-0.20891591906547546
1683474292652425000,9.100425048828125,-0.007941247895359993,-0.025045474991202354,-0.18631389737129211
1683474292662455600,9.11045556640625,-0.01038470957428217,0.0659734457731247,-0.18570303916931152
1683474292672414200,9.120414306640624,-0.012828170321881771,0.11789698898792267,-0.18814650177955627
1683474292682444300,9.1304443359375,-0.018325956538319588,0.08735372871160507,-0.18997909128665924
1683474292692433700,9.14043359375,-0.028099801391363144,-0.00427605677396059,-0.18387043476104736
1683474292702433500,9.15043359375,-0.042760565876960754,-0.07208210229873657,-0.1869247704744339
1683474292712422700,9.160422607421875,-0.054367005825042725,-0.10995574295520782,-0.1869247704744339
1683474292722453000,9.170452880859376,-0.054367005825042725,-0.12034045159816742,-0.17592918872833252
1683474292732442000,9.180442138671875,-0.036651913076639175,-0.06902777403593063,-0.17348572611808777
1683474292742442200,9.190442138671875,-0.06658431142568588,-0.06169738993048668,-0.18387043476104736
1683474292752431000,9.20043115234375,-0.04153883829712868,-0.11789698898792267,-0.14233160018920898
1683474292762431200,9.21043115234375,0.014049900695681572,-0.1612684279680252,-0.1264491081237793
1683474292772420400,9.22042041015625,0.0708603709936142,-0.2590068578720093,-0.1612684279680252
1683474292782452700,9.23045263671875,0.23640485107898712,-0.646906316280365,-0.3585779070854187
1683474292792440000,9.240440185546875,0.5271766781806946,-1.359786033630371,-0.5693264007568359
1683474292802439700,9.250439697265625,0.5259549617767334,-1.929112434387207,-0.656069278717041
1683474292812428800,9.2604287109375,0.3139847218990326,-1.8545868396759033,-0.4911356568336487
1683474292822460700,9.270460693359375,0.08491026610136032,-1.0702359676361084,-0.22540926933288574
1683474292832418000,9.28041796875,0.04092797264456749,-0.12095131725072861,-0.13500121235847473
1683474292842448100,9.2904482421875,0.14233160018920898,0.3494149148464203,-0.16310101747512817
1683474292852437200,9.300437255859375,0.19547687470912933,0.22113321721553802,-0.2125810980796814
1683474292862435600,9.310435546875,0.14355333149433136,-0.24129177629947662,-0.25961771607398987
1683474292872425500,9.320425537109376,0.08552113175392151,-0.4331034719944,-0.2571742534637451
1683474292882455800,9.330455810546875,0.0507018156349659,-0.38240164518356323,-0.19792033731937408
1683474292892445000,9.34044482421875,0.021991148591041565,-0.23090706765651703,-0.09468411654233932
1683474292902444800,9.35044482421875,0.004886921960860491,-0.13805554807186127,-0.05314527451992035
1683474292912434000,9.360433837890625,0.0006108652451075613,-0.13011430203914642,-0.10690141469240189
1683474292922433800,9.370433837890625,0.003054326167330146,-0.15577064454555511,-0.1612684279680252
1683474292932423200,9.380423095703126,-0.010995574295520782,-0.18509216606616974,-0.16554448008537292
1683474292942453500,9.39045361328125,-0.03298672288656235,-0.21441370248794556,-0.14966198801994324
1683474292952412200,9.400412109375,-0.04703662544488907,-0.2669481039047241,-0.16432274878025055
1683474292962443300,9.410443359375,-0.04703662544488907,-0.3738495409488678,-0.1966986060142517
1683474292972432400,9.420432373046875,-0.0403171069920063,-0.4862487316131592,-0.21502456068992615
1683474292982432300,9.430432373046875,-0.027488935738801956,-0.5051855444908142,-0.2217440903186798
1683474292992421400,9.44042138671875,-0.012828170321881771,-0.44837507605552673,-0.23945917189121246
1683474293002451700,9.45045166015625,0.0012217304902151227,-0.38117989897727966,-0.25045475363731384
1683474293012440800,9.46044091796875,0.010995574295520782,-0.30054569244384766,-0.2382374405860901
1683474293022440700,9.470440673828126,0.02382374368607998,-0.22602014243602753,-0.2076941877603531
1683474293032429800,9.480429931640625,0.031154127791523933,-0.17531833052635193,-0.16920967400074005
1683474293042460200,9.490460205078126,0.031154127791523933,-0.12522737681865692,-0.13561208546161652
1683474293052449500,9.500449462890625,0.03420845419168472,-0.05619960278272629,-0.10262536257505417
1683474293062449200,9.51044921875,0.033597588539123535,0.00733038317412138,-0.04886921867728233
1683474293072438500,9.5204384765625,0.04153883829712868,0.02321287989616394,0.009162978269159794
1683474293082438400,9.5304384765625,0.05497787147760391,0.0006108652451075613,0.04153883829712868
1683474293092427500,9.540427490234375,0.06963863968849182,-0.01710422709584236,0.060475658625364304
1683474293102457900,9.550457763671876,0.07024950534105301,0.009773843921720982,0.07941248267889023
1683474293112416500,9.56041650390625,0.07513642311096191,0.04459316283464432,0.09834930300712585
1683474293122446800,9.57044677734375,0.09040805697441101,0.08552113175392151,0.11789698898792267
1683474293132436000,9.58043603515625,0.10323622822761536,0.12278391420841217,0.12461651116609573
1683474293142436000,9.59043603515625,0.09468411654233932,0.16249015927314758,0.1411098688840866
1683474293152425000,9.600425048828125,0.08429940044879913,0.23884831368923187,0.16310101747512817
1683474293162455300,9.610455322265626,0.08124507963657379,0.2919935882091522,0.18448130786418915
1683474293172444700,9.620444580078125,0.08246681094169617,0.2675589919090271,0.20463985204696655
1683474293182444300,9.6304443359375,0.08674286305904388,0.22052235901355743,0.21930062770843506
1683474293192433700,9.64043359375,0.08857546001672745,0.16798794269561768,0.23457226157188416
1683474293202433300,9.650433349609376,0.08307767659425735,0.11545353382825851,0.23579397797584534
1683474293212422700,9.660422607421875,0.07635815441608429,0.06230825558304787,0.2272418737411499
1683474293222452700,9.67045263671875,0.0806342139840126,0.014049900695681572,0.2272418737411499
1683474293232411600,9.68041162109375,0.09957103431224823,-0.06841690838336945,0.2321287989616394
1683474293242442000,9.69044189453125,0.21563543379306793,-0.32986724376678467,0.24434609711170197
1683474293252431000,9.70043115234375,0.17409659922122955,-0.3695734739303589,0.22052235901355743
1683474293262430700,9.7104306640625,0.11178833991289139,-0.1417207419872284,0.24923302233219147
1683474293272420000,9.720420166015625,0.11545353382825851,0.00855211354792118,0.26022860407829285
1683474293282450400,9.730450439453126,0.13866640627384186,-0.01038470957428217,0.25595253705978394
1683474293292439800,9.740439697265625,0.14538592100143433,-0.14538592100143433,0.2583959996700287
1683474293302439400,9.750439453125,0.1411098688840866,-0.24373523890972137,0.2669481039047241
1683474293312428800,9.7604287109375,0.13744467496871948,-0.20402899384498596,0.2724458873271942
1683474293322459100,9.770459228515625,0.1319468915462494,-0.16432274878025055,0.28466320037841797
1683474293332448000,9.780447998046874,0.1319468915462494,-0.1612684279680252,0.3170390725135803
1683474293342448000,9.7904482421875,0.13988813757896423,-0.1771509200334549,0.35552358627319336
1683474293352437200,9.800437255859375,0.1472185254096985,-0.2272418737411499,0.3982841372489929
1683474293362437000,9.81043701171875,0.15943582355976105,-0.33047810196876526,0.4599815309047699
1683474293372426200,9.82042626953125,0.17959438264369965,-0.53328537940979,0.5277875661849976
1683474293382456300,9.830456298828125,0.17898350954055786,-0.759305477142334,0.5827654600143433
1683474293392415200,9.840415283203125,0.1869247704744339,-0.9724974632263184,0.6383541822433472
1683474293402445300,9.8504453125,0.20891591906547546,-1.1679743528366089,0.6524040699005127
1683474293412679200,9.86067919921875,0.17470745742321014,-1.2107349634170532,0.6383541822433472
1683474293422435600,9.870435546875,0.13561208546161652,-1.1716395616531372,0.6053674817085266
1683474293432423700,9.880423583984374,0.1062905490398407,-1.1184942722320557,0.5522221922874451
1683474293442455000,9.890455078125,0.08979719132184982,-1.0561859607696533,0.4911356568336487
1683474293452443100,9.900443115234374,0.06963863968849182,-1.006095051765442,0.3799581825733185
1683474293462444300,9.9104443359375,0.060475658625364304,-1.0488556623458862,0.3341432809829712
1683474293472432400,9.920432373046875,0.04337143152952194,-1.1136072874069214,0.3219259977340698
1683474293482433300,9.930433349609375,0.025045474991202354,-1.1496484279632568,0.30115658044815063
1683474293492421000,9.940421142578124,0.009773843921720982,-1.1496484279632568,0.2742784917354584
1683474293502452700,9.95045263671875,-0.005497787147760391,-1.1465940475463867,0.25595253705978394
1683474293512410000,9.96041015625,-0.02932153269648552,-1.1643091440200806,0.23396138846874237
1683474293522441700,9.970441650390624,-0.0507018156349659,-1.1759155988693237,0.19853121042251587
1683474293532429600,9.9804296875,-0.06291911751031876,-1.168585181236267,0.15943582355976105
1683474293542461200,9.990461181640624,-0.07513642311096191,-1.1270463466644287,0.11667526513338089
1683474293552418800,10.000418701171874,-0.08491026610136032,-1.0561859607696533,0.0659734457731247
1683474293562450200,10.0104501953125,-0.08552113175392151,-1.0030407905578613,0.016493361443281174
1683474293572438300,10.020438232421874,-0.07696902006864548,-1.0280861854553223,-0.018325956538319588
1683474293582439400,10.030439453125,-0.07269296050071716,-1.1172724962234497,-0.039095375686883926
1683474293592427300,10.04042724609375,-0.07635815441608429,-1.2498302459716797,-0.048258353024721146
1683474293602459100,10.050459228515624,-0.07024950534105301,-1.3616186380386353,-0.05803219974040985
1683474293612446700,10.06044677734375,-0.06841690838336945,-1.3164145946502686,-0.07208210229873657
1683474293622447900,10.07044775390625,-0.06841690838336945,-1.214400053024292,-0.08307767659425735
1683474293632435700,10.080435791015624,-0.06230825558304787,-1.1349875926971436,-0.0861319974064827
1683474293642437000,10.09043701171875,-0.04886921867728233,-1.0800096988677979,-0.08124507963657379
1683474293652425000,10.100425048828125,-0.042760565876960754,-1.0311405658721924,-0.09468411654233932
1683474293662456600,10.11045654296875,-0.039706241339445114,-1.018923282623291,-0.10873401165008545
1683474293672414000,10.1204140625,-0.03237585723400116,-1.084285855293274,-0.10323622822761536
1683474293682445600,10.130445556640625,-0.02076941914856434,-1.2223412990570068,-0.06780604273080826
1683474293692433400,10.140433349609374,-0.024434609338641167,-1.3939944505691528,-0.03298672288656235
1683474293702433000,10.15043310546875,-0.04459316283464432,-1.5460999011993408,-0.016493361443281174
1683474293712422400,10.16042236328125,-0.05314527451992035,-1.6517796516418457,-0.022602014243602753
1683474293722453000,10.170452880859376,-0.04948008432984352,-1.6566665172576904,-0.0659734457731247
1683474293732442000,10.180442138671875,-0.0403171069920063,-1.605353832244873,-0.13011430203914642
1683474293742442000,10.19044189453125,-0.02932153269648552,-1.5864170789718628,-0.18387043476104736
1683474293752431000,10.20043115234375,-0.02871066704392433,-1.4801265001296997,-0.24373523890972137
1683474293762431000,10.210430908203126,-0.039706241339445114,-1.3903292417526245,-0.2541199326515198
1683474293772450800,10.220450927734374,-0.05742133408784866,-1.3658946752548218,-0.2431243658065796
1683474293782450400,10.230450439453126,-0.07819075137376785,-1.3903292417526245,-0.2168571650981903
1683474293792439800,10.240439697265625,-0.10384709388017654,-1.4404202699661255,-0.1722639948129654
1683474293802439400,10.250439453125,-0.13255776464939117,-1.5241087675094604,-0.12278391420841217
1683474293812428800,10.2604287109375,-0.14477506279945374,-1.5986343622207642,-0.0757472887635231
1683474293822459100,10.270459228515625,-0.1411098688840866,-1.587027907371521,-0.05192354694008827
1683474293832417500,10.28041748046875,-0.13500121235847473,-1.5332717895507812,-0.06230825558304787
1683474293842448100,10.2904482421875,-0.11728613078594208,-1.5289957523345947,-0.06352998316287994
1683474293852437200,10.300437255859375,-0.08429940044879913,-1.5467108488082886,-0.056810468435287476
1683474293862435300,10.310435302734374,-0.0555887371301651,-1.500285029411316,-0.015271631069481373
1683474293872425200,10.32042529296875,-0.02321287989616394,-1.4269812107086182,0.0354301854968071
1683474293882455800,10.330455810546875,0.003054326167330146,-1.4025466442108154,0.07696902006864548
1683474293892444700,10.340444580078126,0.02321287989616394,-1.379333734512329,0.1111774742603302
1683474293902444500,10.350444580078126,0.05864306539297104,-1.3616186380386353,0.1313360333442688
1683474293912434000,10.360433837890625,0.10445795953273773,-1.3426817655563354,0.15882496535778046
1683474293922433800,10.370433837890625,0.15943582355976105,-1.3280210494995117,0.17348572611808777
1683474293932422700,10.380422607421876,0.2021963894367218,-1.312138557434082,0.17409659922122955
1683474293942453500,10.39045361328125,0.23945917189121246,-1.292590856552124,0.16493362188339233
1683474293952412000,10.400411865234375,0.28038713335990906,-1.2516628503799438,0.15271630883216858
1683474293962445000,10.410445068359374,0.26022860407829285,-1.0952813625335693,0.09712757170200348
1683474293972432100,10.42043212890625,0.33536502718925476,-0.4404338300228119,0.0354301854968071
1683474293982434000,10.43043408203125,0.2431243658065796,-0.3995058834552765,0.15332718193531036
1683474293992421000,10.440421142578124,0.23396138846874237,-0.7428121566772461,0.14355333149433136
1683474294002453500,10.45045361328125,0.252287358045578,-0.9089674949645996,0.14538592100143433
1683474294012440600,10.460440673828124,0.22540926933288574,-0.8130616545677185,0.1722639948129654
1683474294022442500,10.4704423828125,0.20586158335208893,-0.6817256212234497,0.19853121042251587
1683474294032429600,10.4804296875,0.20341812074184418,-0.6359107494354248,0.22602014243602753
1683474294042462200,10.490462158203124,0.18997909128665924,-0.6163630485534668,0.21319197118282318
1683474294052449300,10.50044921875,0.14416420459747314,-0.5577199459075928,0.152105450630188
1683474294062451500,10.510451416015625,0.12095131725072861,-0.494189977645874,0.0806342139840126
1683474294072438500,10.5204384765625,0.09529497474431992,-0.423329621553421,-0.0012217304902151227
1683474294082440200,10.530440185546874,0.06780604273080826,-0.3139847218990326,-0.10201449692249298
1683474294092427300,10.54042724609375,0.03420845419168472,-0.15332718193531036,-0.17959438264369965
1683474294102459600,10.550459716796874,-0.0024434609804302454,-0.02871066704392433,-0.22968533635139465
1683474294112416500,10.56041650390625,-0.02015855349600315,0.05375614017248154,-0.2528982162475586
1683474294122448600,10.57044873046875,-0.0507018156349659,0.10751228034496307,-0.2535090744495392
1683474294132435700,10.580435791015624,-0.07330382615327835,0.17348572611808777,-0.23151792585849762
1683474294142438000,10.59043798828125,-0.09285151958465576,0.29138273000717163,-0.19303341209888458
1683474294152424700,10.6004248046875,-0.0806342139840126,0.4489859640598297,-0.15332718193531036
1683474294162457300,10.610457275390624,-0.07635815441608429,0.5900958180427551,-0.12339477986097336
1683474294172444400,10.6204443359375,-0.08979719132184982,0.6640105247497559,-0.1062905490398407
1683474294182446600,10.630446533203125,-0.10201449692249298,0.6823364496231079,-0.08857546001672745
1683474294192433400,10.640433349609374,-0.14049901068210602,0.6548475623130798,-0.07024950534105301
1683474294202435300,10.650435302734374,-0.17043140530586243,0.618195652961731,-0.059864792972803116
1683474294212422400,10.66042236328125,-0.18448130786418915,0.5699372887611389,-0.04642575979232788
1683474294222454800,10.670454833984374,-0.19303341209888458,0.49846604466438293,-0.0354301854968071
1683474294232411400,10.680411376953124,-0.17837265133857727,0.42699480056762695,-0.021991148591041565
1683474294242444000,10.690444091796875,-0.1466076523065567,0.40133845806121826,-0.006108652334660292
1683474294252430800,10.700430908203124,-0.11850785464048386,0.38667771220207214,0.0012217304902151227
1683474294262433000,10.71043310546875,-0.0959058403968811,0.3500257730484009,0.004886921960860491
1683474294272420000,10.720420166015625,-0.07819075137376785,0.2871066629886627,0.00427605677396059
1683474294282450400,10.730450439453126,-0.07269296050071716,0.1820378452539444,0.015271631069481373
1683474294292439600,10.740439453125,-0.06658431142568588,0.12034045159816742,0.029932396486401558
1683474294302441700,10.750441650390625,-0.05742133408784866,0.09896016865968704,0.05192354694008827
1683474294312428500,10.760428466796874,-0.04337143152952194,0.07757988572120667,0.06719517707824707
1683474294322461000,10.7704609375,-0.02321287989616394,0.06414084881544113,0.07208210229873657
1683474294332448000,10.780447998046874,-0.01710422709584236,0.05253441259264946,0.060475658625364304
1683474294342450000,10.790449951171874,-0.009162978269159794,0.02076941914856434,0.029932396486401558
1683474294352437000,10.80043701171875,-0.00733038317412138,0.02015855349600315,0.00733038317412138
1683474294362439000,10.81043896484375,-0.00427605677396059,0.03787364438176155,-0.018325956538319588
1683474294372426200,10.82042626953125,0.00366519158706069,0.06780604273080826,-0.03298672288656235
1683474294382458600,10.830458740234375,0.012217304669320583,0.11362093687057495,-0.045204028487205505
1683474294392415000,10.8404150390625,0.025045474991202354,0.14355333149433136,-0.05253441259264946
1683474294402447400,10.850447265625,0.031154127791523933,0.1411098688840866,-0.05742133408784866
1683474294412434700,10.8604345703125,0.0354301854968071,0.11667526513338089,-0.05375614017248154
1683474294422436600,10.8704365234375,0.042760565876960754,0.12095131725072861,-0.045204028487205505
1683474294432423400,10.88042333984375,0.04948008432984352,0.152105450630188,-0.03848451003432274
1683474294442456300,10.890456298828125,0.051312681287527084,0.18081611394882202,-0.0354301854968071
1683474294452443100,10.900443115234374,0.05314527451992035,0.2064724564552307,-0.03176499158143997
1683474294462445000,10.910445068359374,0.05803219974040985,0.252287358045578,-0.03237585723400116
1683474294472432400,10.920432373046875,0.060475658625364304,0.32070425152778625,-0.039095375686883926
1683474294482434000,10.93043408203125,0.0659734457731247,0.3878994286060333,-0.04886921867728233
1683474294492421000,10.940421142578124,0.05009094998240471,0.45875978469848633,-0.06291911751031876
1683474294502453500,10.95045361328125,0.0403171069920063,0.5717698931694031,-0.08552113175392151
1683474294512410000,10.96041015625,0.029932396486401558,0.6914994716644287,-0.10690141469240189
1683474294522442800,10.97044287109375,0.018325956538319588,0.7721336483955383,-0.11728613078594208
1683474294532429800,10.980429931640625,0.012828170321881771,0.8112290501594543,-0.11423180252313614
1683474294542460200,10.990460205078126,0.007941247895359993,0.8313875794410706,-0.10995574295520782
1683474294552418600,11.00041845703125,0.00366519158706069,0.8582656979560852,-0.11545353382825851
1683474294562449000,11.010448974609375,-0.01038470957428217,0.8820894360542297,-0.1313360333442688
1683474294572438300,11.020438232421874,-0.022602014243602753,0.9144652485847473,-0.13866640627384186
1683474294582438100,11.030438232421876,-0.03481931984424591,0.9828822016716003,-0.13011430203914642
1683474294592427300,11.04042724609375,-0.04764748737215996,1.0855075120925903,-0.11239920556545258
1683474294602457600,11.05045751953125,-0.05619960278272629,1.1838568449020386,-0.10506882518529892
1683474294612446700,11.06044677734375,-0.07024950534105301,1.216843605041504,-0.08918632566928864
1683474294622446600,11.070446533203125,-0.06841690838336945,1.243721604347229,-0.07941248267889023
1683474294632435700,11.080435791015624,-0.06169738993048668,1.3506230115890503,-0.06841690838336945
1683474294642435600,11.090435546875,-0.059864792972803116,1.4660766124725342,-0.04703662544488907
1683474294652424700,11.1004248046875,-0.06230825558304787,1.5277739763259888,-0.024434609338641167
1683474294662455300,11.110455322265626,-0.07513642311096191,1.5210545063018799,0.01038470957428217
1683474294672414000,11.1204140625,-0.08674286305904388,1.5137240886688232,0.04459316283464432
1683474294682444300,11.1304443359375,-0.10262536257505417,1.5234979391098022,0.07513642311096191
1683474294692433400,11.140433349609374,-0.12767083942890167,1.4844025373458862,0.08735372871160507
1683474294702433300,11.150433349609376,-0.14294247329235077,1.4172073602676392,0.09529497474431992
1683474294712422400,11.16042236328125,-0.15027284622192383,1.3573426008224487,0.10812314599752426
1683474294722453000,11.170452880859376,-0.14049901068210602,1.3170254230499268,0.10812314599752426
1683474294732442000,11.180442138671875,-0.11423180252313614,1.3536773920059204,0.12461651116609573
1683474294742441700,11.190441650390625,-0.07513642311096191,1.4404202699661255,0.15882496535778046
1683474294752431000,11.20043115234375,-0.03726277872920036,1.4593570232391357,0.18081611394882202
1683474294762432000,11.210431884765624,-0.006108652334660292,1.434922456741333,0.21991148591041565
1683474294772420000,11.220420166015625,0.00366519158706069,1.3878858089447021,0.2785545587539673
1683474294782451500,11.230451416015624,0.006108652334660292,1.2327260971069336,0.3549126982688904
1683474294792439800,11.240439697265625,-0.00366519158706069,1.1093312501907349,0.39645153284072876
1683474294802440700,11.250440673828125,-0.012217304669320583,1.0042624473571777,0.4245513379573822
1683474294812428500,11.260428466796874,-0.019547687843441963,0.9132435321807861,0.4355469346046448
1683474294822460400,11.27046044921875,-0.025656340643763542,0.8576548099517822,0.44287729263305664
1683474294832417500,11.28041748046875,-0.021991148591041565,0.817337691783905,0.4386012554168701
1683474294842449200,11.29044921875,-0.009773843921720982,0.7721336483955383,0.38606682419776917
1683474294852437200,11.300437255859375,0.0012217304902151227,0.7837401032447815,0.33169981837272644
1683474294862436600,11.3104365234375,0.0024434609804302454,0.8216137290000916,0.3274237811565399
1683474294872425200,11.32042529296875,-0.0006108652451075613,0.8295549750328064,0.375071257352829
1683474294882456600,11.33045654296875,-0.001832595793530345,0.836885392665863,0.4337143301963806
1683474294892444700,11.340444580078126,-0.006719517521560192,0.8625417351722717,0.49724429845809937
1683474294902445800,11.35044580078125,-0.009773843921720982,0.8680394887924194,0.5791002511978149
1683474294912433700,11.36043359375,-0.015271631069481373,0.8741481900215149,0.6505714654922485
1683474294922435000,11.37043505859375,-0.01710422709584236,0.8332201838493347,0.6951646208763123
1683474294932423000,11.3804228515625,-0.00427605677396059,0.7507534027099609,0.7147123217582703
1683474294942454500,11.39045458984375,0.006719517521560192,0.7275404930114746,0.6951646208763123
1683474294952412000,11.400411865234375,0.015271631069481373,0.720820963382721,0.7055493593215942
1683474294962444000,11.410444091796874,0.021991148591041565,0.6762278079986572,0.7122688889503479
1683474294972432100,11.42043212890625,0.02321287989616394,0.636521577835083,0.6921103000640869
1683474294982433300,11.430433349609375,0.018936822190880775,0.6548475623130798,0.6627888083457947
1683474294992421000,11.440421142578124,0.012217304669320583,0.7165449261665344,0.6493497490882874
1683474295002452700,11.45045263671875,0.005497787147760391,0.8032878041267395,0.6230825781822205
1683474295012440600,11.460440673828124,-0.014049900695681572,0.8643743395805359,0.5723807215690613
1683474295022441700,11.470441650390624,-0.036651913076639175,0.8704829812049866,0.4948008358478546
1683474295032429800,11.480429931640625,-0.05375614017248154,0.8362745046615601,0.40072759985923767
1683474295042460700,11.490460693359376,-0.06230825558304787,0.8002334833145142,0.3194825351238251
1683474295052449300,11.50044921875,-0.06169738993048668,0.7562511563301086,0.22907446324825287
1683474295062449700,11.51044970703125,-0.0659734457731247,0.6450737118721008,0.11850785464048386
1683474295072438300,11.520438232421874,-0.06719517707824707,0.5180137157440186,0.00733038317412138
1683474295082438700,11.530438720703126,-0.07208210229873657,0.5583308339118958,-0.08124507963657379
1683474295092427300,11.54042724609375,-0.0708603709936142,0.5326744914054871,-0.14782938361167908
1683474295102459000,11.550458984375,-0.07635815441608429,0.44226643443107605,-0.21991148591041565
1683474295112416300,11.560416259765624,-0.08124507963657379,0.38240164518356323,-0.29626965522766113
1683474295122447000,11.570447021484375,-0.08918632566928864,0.394618958234787,-0.36529740691185
1683474295132435700,11.580435791015624,-0.09040805697441101,0.40194934606552124,-0.4337143301963806
1683474295142436900,11.590436767578124,-0.10018189996480942,0.39706242084503174,-0.5064072608947754
1683474295152424700,11.6004248046875,-0.11972958594560623,0.3836233615875244,-0.5766568183898926
1683474295162456300,11.610456298828124,-0.13377949595451355,0.33292156457901,-0.627358615398407
1683474295172444400,11.6204443359375,-0.13744467496871948,0.3139847218990326,-0.6414085030555725
1683474295182445300,11.6304453125,-0.1270599663257599,0.33169981837272644,-0.626747727394104
1683474295192433400,11.640433349609374,-0.10567969083786011,0.29016098380088806,-0.5955936312675476
1683474295202434600,11.6504345703125,-0.08307767659425735,0.2278527319431305,-0.5595525503158569
1683474295212422400,11.66042236328125,-0.05864306539297104,0.23090706765651703,-0.5100724697113037
1683474295222454300,11.670454345703124,-0.025045474991202354,0.2168571650981903,-0.44226643443107605
1683474295232411400,11.680411376953124,-0.003054326167330146,0.20097467303276062,-0.4153883755207062
1683474295242442800,11.69044287109375,0.009773843921720982,0.21807889640331268,-0.4153883755207062
1683474295252430800,11.700430908203124,0.01160643994808197,0.2278527319431305,-0.4398229718208313
1683474295262432000,11.710431884765624,0.0012217304902151227,0.2217440903186798,-0.48319441080093384
1683474295272420000,11.720420166015625,-0.018325956538319588,0.19120082259178162,-0.5455026626586914
1683474295282451500,11.730451416015624,-0.04214970022439957,0.14294247329235077,-0.5992587804794312
1683474295292439600,11.740439453125,-0.06291911751031876,0.14049901068210602,-0.6499606370925903
1683474295302440400,11.7504404296875,-0.08002334833145142,0.1508837193250656,-0.6988298296928406
1683474295312428300,11.76042822265625,-0.09346238523721695,0.16371189057826996,-0.7226535677909851
1683474295322460200,11.770460205078125,-0.09651670604944229,0.16798794269561768,-0.7250970602035522
1683474295332448000,11.780447998046874,-0.09468411654233932,0.15332718193531036,-0.7171558141708374
1683474295342449200,11.79044921875,-0.09162978827953339,0.13255776464939117,-0.7049384713172913
1683474295352437200,11.800437255859375,-0.09346238523721695,0.0910189226269722,-0.6957755088806152
1683474295362438100,11.810438232421875,-0.10506882518529892,0.04459316283464432,-0.6829473376274109
1683474295372426000,11.820426025390624,-0.09346238523721695,-0.04703662544488907,-0.646906316280365
1683474295382457600,11.83045751953125,-0.09040805697441101,-0.1667662113904953,-0.6322455406188965
1683474295392415200,11.840415283203125,-0.09162978827953339,-0.2871066629886627,-0.6401867866516113
1683474295402378200,11.850378173828124,-0.09407325088977814,-0.3903428912162781,-0.675616979598999
1683474295412647400,11.8606474609375,-0.09773843735456467,-0.4306600093841553,-0.6982190012931824
1683474295423229200,11.871229248046875,-0.09773843735456467,-0.4306600093841553,-0.6982190012931824
1683474295433217300,11.88121728515625,-0.09773843735456467,-0.4306600093841553,-0.6982190012931824
1683474295443248600,11.89124853515625,-0.09773843735456467,-0.4306600093841553,-0.6982190012931824
1683474295453206300,11.901206298828125,-0.08979719132184982,-0.6096435189247131,-0.8717046976089478
1683474295463237600,11.911237548828124,-0.08185594528913498,-0.7006624341011047,-0.8784242272377014
1683474295473225700,11.921225830078125,-0.07024950534105301,-0.7916813492774963,-0.8662069439888
1683474295483227000,11.931226806640625,-0.05497787147760391,-0.8387179970741272,-0.8332201838493347
1683474295493214700,11.941214599609374,-0.03420845419168472,-0.8674286603927612,-0.7965682744979858
1683474295503246300,11.951246337890625,-0.010995574295520782,-0.8649851679801941,-0.759916365146637
1683474295513203700,11.96120361328125,0.01710422709584236,-0.8429940342903137,-0.7232644557952881
1683474295523235300,11.9712353515625,0.04642575979232788,-0.8307767510414124,-0.6792821288108826
1683474295533223400,11.981223388671875,0.07452555745840073,-0.8087855577468872,-0.6304129362106323
1683474295543224300,11.991224365234375,0.09346238523721695,-0.7971791625022888,-0.578489363193512
1683474295553212400,12.00121240234375,0.10873401165008545,-0.7953465580940247,-0.5314527750015259
1683474295563243800,12.011243896484375,0.11667526513338089,-0.79840087890625,-0.494189977645874
1683474295573201400,12.021201416015625,0.11850785464048386,-0.8216137290000916,-0.46364670991897583
1683474295583232800,12.031232666015624,0.1160643994808197,-0.8295549750328064,-0.4331034719944
1683474295593220900,12.041220947265625,0.11178833991289139,-0.8100073337554932,-0.4086688458919525
1683474295603221800,12.0512216796875,0.09773843735456467,-0.8124507665634155,-0.3854559659957886
1683474295613209900,12.0612099609375,0.08185594528913498,-0.8558222055435181,-0.3237585723400116
1683474295623241500,12.071241455078125,0.06719517707824707,-0.7947356700897217,-0.20463985204696655
1683474295633198800,12.08119873046875,0.06414084881544113,-0.7281513810157776,-0.15760323405265808
1683474295643230200,12.091230224609374,0.06291911751031876,-0.7092145681381226,-0.12522737681865692
1683474295653218600,12.101218505859375,0.05619960278272629,-0.6798930168151855,-0.1007927656173706
1683474295663219500,12.111219482421875,0.0507018156349659,-0.6542366743087769,-0.07513642311096191
1683474295673207600,12.12120751953125,0.036651913076639175,-0.6640105247497559,-0.036041051149368286
1683474295683239200,12.1312392578125,0.016493361443281174,-0.6835582256317139,0.019547687843441963
1683474295693227000,12.14122705078125,-0.00366519158706069,-0.7110471725463867,0.0861319974064827
1683474295703228000,12.151227783203124,-0.021991148591041565,-0.7617489695549011,0.16004669666290283
1683474295713216000,12.161216064453125,-0.03726277872920036,-0.8307767510414124,0.24007004499435425
1683474295723247900,12.171247802734374,-0.04337143152952194,-0.8827002644538879,0.3017674386501312
1683474295733205200,12.181205322265624,-0.04398229718208313,-0.9150761365890503,0.3488040566444397
1683474295743236600,12.191236572265625,-0.04398229718208313,-0.8985827565193176,0.3897320330142975
1683474295753224700,12.201224609375,-0.05009094998240471,-0.8649851679801941,0.4190535545349121
1683474295763224300,12.211224365234376,-0.05253441259264946,-0.8491026759147644,0.44165557622909546
1683474295773213700,12.221213623046875,-0.05619960278272629,-0.8515461683273315,0.45875978469848633
1683474295783244000,12.231244140625,-0.06169738993048668,-0.856433093547821,0.4905247986316681
1683474295793202700,12.24120263671875,-0.06963863968849182,-0.8460483551025391,0.5302310585975647
1683474295803233000,12.25123291015625,-0.08185594528913498,-0.8210029006004333,0.5595525503158569
1683474295813222100,12.26122216796875,-0.08918632566928864,-0.799011766910553,0.5803219676017761
1683474295823222000,12.271221923828126,-0.09162978827953339,-0.769690215587616,0.6017022728919983
1683474295833211100,12.281211181640625,-0.09162978827953339,-0.7373143434524536,0.6218608021736145
1683474295843241500,12.291241455078126,-0.08735372871160507,-0.7189884185791016,0.6407976150512695
1683474295853200400,12.301200439453124,-0.08185594528913498,-0.6835582256317139,0.6585127115249634
1683474295863229000,12.31122900390625,-0.07391469180583954,-0.6334672570228577,0.6841690540313721
1683474295873249000,12.3212490234375,-0.06475171446800232,-0.5852088928222656,0.7128797173500061
1683474295883218400,12.331218505859376,-0.05925392732024193,-0.5357288122177124,0.7312057018280029
1683474295893207800,12.341207763671875,-0.054367005825042725,-0.49235737323760986,0.749531626701355
1683474295903238000,12.35123779296875,-0.056810468435287476,-0.4489859640598297,0.759916365146637
1683474295913197000,12.361197021484376,-0.06230825558304787,-0.43127086758613586,0.7538077235221863
1683474295923227100,12.37122705078125,-0.0757472887635231,-0.4746423065662384,0.7275404930114746
1683474295933216500,12.381216552734376,-0.08002334833145142,-0.5125159621238708,0.7195992469787598
1683474295943246800,12.391246826171875,-0.07757988572120667,-0.5229006409645081,0.7250970602035522
1683474295953205200,12.401205322265625,-0.07208210229873657,-0.5106833577156067,0.7312057018280029
1683474295963236400,12.411236328125,-0.06902777403593063,-0.4899139404296875,0.7312057018280029
1683474295973225700,12.421225830078125,-0.06841690838336945,-0.46181413531303406,0.7397578358650208
1683474295983225600,12.4312255859375,-0.0708603709936142,-0.4288274049758911,0.7525860071182251
1683474295993214700,12.441214599609374,-0.0806342139840126,-0.42088615894317627,0.7733554244041443
1683474296003245000,12.4512451171875,-0.08796459436416626,-0.41233405470848083,0.7739662528038025
1683474296013203700,12.46120361328125,-0.09651670604944229,-0.41233405470848083,0.7538077235221863
