time,seconds_elapsed,z,y,x
1683474283716441600,0.164441650390625,9.006986618041992,2.6144683361053467,-1.764526605606079
1683474283726720300,0.17472021484375,9.21288776397705,2.647987127304077,-1.9249382019042969
1683474283736699400,0.184699462890625,9.622296333312988,2.5785553455352783,-2.5785553455352783
1683474283746709200,0.194709228515625,9.854534149169922,2.762908697128296,-3.3734302520751953
1683474283756719000,0.204718994140625,9.607931137084961,2.5546131134033203,-2.4181437492370605
1683474283766698200,0.2146982421875,9.725247383117676,2.5282769203186035,-1.800439715385437
1683474283776708000,0.2247080078125,9.883264541625977,2.6647465229034424,-1.4221558570861816
1683474283786718000,0.234718017578125,9.995792388916016,2.846705913543701,-1.1276689767837524
1683474283796727800,0.244727783203125,9.928754806518555,2.6623523235321045,-1.2545616626739502
1683474283806706700,0.254706787109375,9.627084732055664,2.406172752380371,-1.534683346748352
1683474283816716500,0.264716552734375,9.253589630126953,2.604891538619995,-1.580173134803772
1683474283826726100,0.27472607421875,8.93037223815918,2.7126305103302,-1.434126853942871
1683474283836705500,0.28470556640625,8.746018409729004,2.849100112915039,-1.403002142906189
1683474283846715400,0.29471533203125,8.556877136230469,2.9975404739379883,-1.5107412338256836
1683474283856725200,0.304725341796875,8.415618896484375,3.045424461364746,-1.5969325304031372
1683474283866704400,0.314704345703125,8.250418663024902,3.0597896575927734,-1.6903064250946045
1683474283876714200,0.32471435546875,8.14028549194336,3.0573954582214355,-1.6615760326385498
1683474283886723800,0.334723876953125,8.178592681884766,3.045424461364746,-1.5322890281677246
1683474283896703000,0.344702880859375,8.513781547546387,3.069366693496704,-1.2497732639312744
1683474283906712800,0.354712890625,9.016563415527344,3.1483752727508545,-1.0127472877502441
1683474283916722700,0.36472265625,9.260771751403809,3.1747114658355713,-0.9409212470054626
1683474283926701800,0.374701904296875,9.339780807495117,3.1507694721221924,-1.0031704902648926
1683474283936711700,0.384711669921875,9.437943458557129,3.1052796840667725,-1.0893617868423462
1683474283946721300,0.39472119140625,9.370905876159668,3.045424461364746,-1.2090718746185303
1683474283956700700,0.40470068359375,9.193734169006348,3.047818660736084,-1.3766659498214722
1683474283966710500,0.41471044921875,9.255983352661133,3.136404275894165,-1.3766659498214722
1683474283976720400,0.424720458984375,9.215282440185547,3.162740468978882,-1.3742717504501343
1683474283986699500,0.434699462890625,9.121908187866211,3.2345664501190186,-1.3192051649093628
1683474283996709000,0.444709228515625,8.978256225585938,3.2824504375457764,-1.1300631761550903
1683474284006719000,0.454718994140625,8.880094528198242,3.4404678344726562,-0.9959878921508789
1683474284016698000,0.464697998046875,8.508993148803711,2.6862943172454834,-1.7597382068634033
1683474284026708000,0.4747080078125,8.22887134552002,2.583343744277954,-2.056619167327881
1683474284036717800,0.4847177734375,8.4108304977417,3.4835634231567383,-1.6280571222305298
1683474284046727400,0.4947275390625,8.746018409729004,3.2297780513763428,-1.235408067703247
1683474284056706800,0.504706787109375,9.282320022583008,2.875436305999756,-1.6400281190872192
1683474284066716700,0.514716552734375,9.38048267364502,3.117250680923462,-1.9105730056762695
1683474284076726300,0.524726318359375,9.385271072387695,3.2297780513763428,-1.98958158493042
1683474284086705700,0.53470556640625,9.521739959716797,3.270479440689087,-2.049436569213867
1683474284096715300,0.54471533203125,9.627084732055664,3.2992098331451416,-1.9369091987609863
1683474284106725000,0.55472509765625,9.670180320739746,3.3255462646484375,-1.745373010635376
1683474284116704300,0.564704345703125,9.62947940826416,3.359065055847168,-1.381454348564148
1683474284126714000,0.574714111328125,9.349357604980469,3.423708438873291,-1.0678139925003052
1683474284136723700,0.5847236328125,8.975862503051758,3.4548330307006836,-0.8140285611152649
1683474284146703000,0.594703125,8.741230010986328,3.7181951999664307,-1.1061211824417114
1683474284156713000,0.604712890625,8.585607528686523,3.4548330307006836,-1.0534487962722778
1683474284166722600,0.61472265625,8.573636054992676,3.268085241317749,-1.01753568649292
1683474284176702000,0.624701904296875,8.676587104797363,3.2992098331451416,-1.0582371950149536
1683474284186711800,0.6347119140625,8.738836288452148,3.339911460876465,-1.0630255937576294
1683474284196721700,0.6447216796875,8.760383605957031,3.4165258407592773,-1.1085153818130493
1683474284206700800,0.65470068359375,8.951920509338379,3.890577793121338,-1.3239935636520386
1683474284216710400,0.66471044921875,8.990227699279785,3.885789394378662,-1.4484920501708984
1683474284226720300,0.67472021484375,8.884882926940918,2.8419175148010254,-1.3862427473068237
1683474284236699400,0.684699462890625,8.734047889709473,2.5043349266052246,-1.01753568649292
1683474284246709200,0.694709228515625,8.75080680847168,2.8443117141723633,-0.20350714027881622
1683474284256719000,0.704718994140625,8.87291145324707,3.0166940689086914,0.4620809257030487
1683474284266698200,0.7146982421875,9.136273384094238,2.9305028915405273,0.7924807667732239
1683474284276708000,0.7247080078125,9.579200744628906,2.8610711097717285,0.8355764150619507
1683474284286718000,0.734718017578125,9.998186111450195,2.892195701599121,0.7134721279144287
1683474284296727600,0.7447275390625,10.160991668701172,2.9328970909118652,0.5913678407669067
1683474284306706700,0.754706787109375,10.199298858642578,2.9472622871398926,0.3998316824436188
1683474284316716500,0.764716552734375,10.132261276245117,2.978386878967285,0.26575639843940735
1683474284326726100,0.77472607421875,10.046070098876953,3.0095114707946777,0.040701430290937424
1683474284336705500,0.78470556640625,9.871294021606445,3.222595453262329,-0.33279404044151306
1683474284346715400,0.79471533203125,9.674968719482422,3.4572272300720215,-0.5410895943641663
1683474284356725200,0.804725341796875,9.315838813781738,3.028665065765381,-1.0007762908935547
1683474284366704400,0.814704345703125,9.074024200439453,3.4596214294433594,-1.0582371950149536
1683474284376714200,0.82471435546875,9.064447402954102,3.797203779220581,-0.38307225704193115
1683474284386724000,0.83472412109375,8.987833023071289,3.5625722408294678,-0.33997663855552673
1683474284396703200,0.844703125,8.707711219787598,3.318363666534424,-0.9840168952941895
1683474284406712800,0.854712890625,8.259995460510254,3.270479440689087,-0.8044517636299133
1683474284416722400,0.864722412109375,8.209717750549316,3.464409828186035,-0.8259995579719543
1683474284426701800,0.874701904296875,8.362946510314941,3.6583402156829834,-1.072602391242981
1683474284436711700,0.884711669921875,8.38688850402832,3.7828385829925537,-1.0127472877502441
1683474284446721500,0.894721435546875,8.394071578979492,3.6727054119110107,-1.137245774269104
1683474284456700700,0.90470068359375,8.719682693481445,3.60566782951355,-1.335964560508728
1683474284466710500,0.91471044921875,9.208099365234375,3.7205893993377686,-1.2665326595306396
1683474284476720400,0.924720458984375,9.651026725769043,3.794809579849243,-0.9217676520347595
1683474284486699500,0.934699462890625,9.907206535339355,3.6846764087677,-0.6991068720817566
1683474284496709000,0.944709228515625,9.744400978088379,3.60566782951355,-0.6320692300796509
1683474284506719000,0.954718994140625,9.363722801208496,3.620033025741577,-0.6871358752250671
1683474284516698000,0.964697998046875,8.980650901794434,3.5960910320281982,-0.8092401623725891
1683474284526708000,0.9747080078125,8.611943244934082,3.5721490383148193,-0.8379706144332886
1683474284536717800,0.9847177734375,8.327033042907715,3.531447410583496,-0.8810662031173706
1683474284546727400,0.9947275390625,8.243236541748047,3.579331636428833,-0.950498104095459
1683474284556706800,1.004706787109375,8.348581314086914,3.6535518169403076,-1.091755986213684
1683474284566716700,1.014716552734375,8.53293514251709,3.708618402481079,-1.0438719987869263
1683474284576726300,1.024726318359375,8.796297073364258,3.7253777980804443,-0.8930372595787048
1683474284586705700,1.03470556640625,9.141061782836914,3.6990416049957275,-0.6919242739677429
1683474284596715300,1.04471533203125,9.473855972290039,3.689464807510376,-0.33997663855552673
1683474284606725000,1.05472509765625,9.746794700622559,3.7445313930511475,-0.12928688526153564
1683474284616704500,1.06470458984375,10.010157585144043,3.706224203109741,-0.08858546614646912
1683474284626714000,1.074714111328125,9.41639518737793,3.6320040225982666,-0.43095630407333374
1683474284636723700,1.0847236328125,8.973467826843262,3.6535518169403076,-0.8834604024887085
1683474284646703000,1.094703125,8.652645111083984,3.7397429943084717,-1.0079588890075684
1683474284656713000,1.104712890625,9.375694274902344,4.141968727111816,-0.9050082564353943
1683474284666722800,1.114722900390625,9.004592895507812,3.624821424484253,-0.871489405632019
1683474284676702000,1.124701904296875,8.437167167663574,3.222595453262329,-1.161187767982483
1683474284686711800,1.1347119140625,7.975085735321045,3.098097085952759,-1.558625340461731
1683474284696721400,1.144721435546875,7.63989782333374,3.308786630630493,-1.7597382068634033
1683474284706700800,1.15470068359375,7.711723804473877,3.533841609954834,-1.7190368175506592
1683474284716710400,1.16471044921875,7.908048152923584,3.4596214294433594,-1.5921441316604614
1683474284726720300,1.17472021484375,8.17380428314209,3.313575267791748,-1.580173134803772
1683474284736699400,1.184699462890625,8.44434928894043,3.1220390796661377,-1.659181833267212
1683474284746709200,1.194709228515625,8.923190116882324,0.8738836050033569,-3.5170822143554688
1683474284756719000,1.204718994140625,9.071630477905273,1.2282254695892334,-3.2609026432037354
1683474284766698200,1.2146982421875,8.731653213500977,1.5466543436050415,-2.846705913543701
1683474284776708000,1.2247080078125,8.224082946777344,1.889025092124939,-2.343923568725586
1683474284786718000,1.234718017578125,8.070854187011719,2.2002713680267334,-2.0925323963165283
1683474284796727600,1.2447275390625,8.14028549194336,2.3774423599243164,-2.0231003761291504
1683474284806706700,1.254706787109375,8.482656478881836,2.3702597618103027,-2.293645143508911
1683474284816716500,1.264716552734375,8.094796180725098,2.3511061668395996,-2.008735179901123
1683474284826726100,1.27472607421875,7.577648162841797,2.516305923461914,-1.7980455160140991
1683474284836705500,1.28470556640625,7.309497833251953,2.6408045291900635,-1.460463047027588
1683474284846715400,1.29471533203125,7.2783732414245605,2.609679937362671,-1.3646949529647827
1683474284856725000,1.30472509765625,7.6566572189331055,2.427720546722412,-1.5179238319396973
1683474284866704400,1.314704345703125,7.603984832763672,2.054224967956543,-1.400607943534851
1683474284876714200,1.32471435546875,7.146692276000977,1.5131354331970215,-1.0342950820922852
1683474284886723800,1.334723876953125,6.904877662658691,1.039083480834961,-0.49799394607543945
1683474284896703000,1.344702880859375,7.1490864753723145,0.8595184087753296,-0.009576806798577309
1683474284906712800,1.354712890625,9.959878921508789,1.5442601442337036,2.0638017654418945
1683474284916722700,1.36472265625,14.511256217956543,3.97916316986084,7.374141216278076
1683474284926701800,1.374701904296875,10.314221382141113,2.31758713722229,3.5003228187561035
1683474284936711700,1.384711669921875,12.466608047485352,3.00711727142334,6.349422931671143
1683474284946721300,1.39472119140625,10.376470565795898,2.4588451385498047,4.359841346740723
1683474284956700700,1.40470068359375,9.818621635437012,2.145204782485962,3.3470940589904785
1683474284966710500,1.41471044921875,9.399636268615723,2.03507137298584,2.3487119674682617
1683474284976720400,1.424720458984375,9.100360870361328,1.7597382068634033,1.091755986213684
1683474284986699500,1.434699462890625,9.581595420837402,1.3982137441635132,0.5722141861915588
1683474284996709000,1.444709228515625,10.682928085327148,1.2497732639312744,0.9696516990661621
1683474285006719000,1.454718994140625,12.18648624420166,0.7493851184844971,1.0821791887283325
1683474285016698000,1.464697998046875,13.328520774841309,0.033518824726343155,1.2713210582733154
1683474285026708000,1.4747080078125,12.6365966796875,0.19393034279346466,1.8315643072128296
1683474285036717800,1.4847177734375,11.903970718383789,0.689530074596405,-1.5825673341751099
1683474285046727400,1.4947275390625,12.492944717407227,1.3766659498214722,-2.5761611461639404
1683474285056706800,1.504706787109375,11.954249382019043,1.3862427473068237,-0.8307880163192749
1683474285066716700,1.514716552734375,11.039664268493652,2.183511972427368,-0.5506663918495178
1683474285076726300,1.524726318359375,10.663774490356445,4.393360137939453,-1.7597382068634033
1683474285086705700,1.53470556640625,10.273519515991211,4.807557106018066,-1.0295066833496094
1683474285096715300,1.54471533203125,9.186552047729492,4.031835556030273,-0.8403648138046265
1683474285106725000,1.55472509765625,3.2178070545196533,1.8986018896102905,0.17717093229293823
1683474285116704300,1.564704345703125,-0.047884032130241394,-1.9800047874450684,2.889801502227783
1683474285126714000,1.574714111328125,6.971915245056152,0.21547815203666687,-1.0319008827209473
1683474285136723700,1.5847236328125,9.840168952941895,1.577778935432434,-2.3511061668395996
1683474285146703000,1.594703125,10.182539939880371,0.49320554733276367,-1.8914192914962769
1683474285156713000,1.604712890625,10.287884712219238,0.2992752194404602,-0.7158663272857666
1683474285166722600,1.61472265625,9.737217903137207,-0.2561795711517334,-0.014365210197865963
1683474285176702000,1.624701904296875,9.138668060302734,-0.6919242739677429,0.5985504388809204
1683474285186711800,1.6347119140625,9.006986618041992,-0.7805097699165344,1.1085153818130493
1683474285196721700,1.6447216796875,9.435548782348633,-0.7924807667732239,1.3934253454208374
1683474285206700800,1.65470068359375,10.1753568649292,-0.6177040338516235,1.7717092037200928
1683474285216710400,1.66471044921875,11.027692794799805,-0.33997663855552673,1.9057846069335938
1683474285226720300,1.67472021484375,11.494562149047852,-0.17238251864910126,1.6352397203445435
1683474285236699400,1.684699462890625,11.619060516357422,-0.20111294090747833,1.2713210582733154
1683474285246709200,1.694709228515625,11.614272117614746,-0.3447650372982025,0.6153098344802856
1683474285256718800,1.70471875,11.499350547790527,-0.5099649429321289,-0.12210428714752197
1683474285266698200,1.7146982421875,11.81299114227295,-1.2761094570159912,-0.6368576288223267
1683474285276708000,1.7247080078125,11.939884185791016,-0.8619126081466675,-2.276885747909546
1683474285286718000,1.734718017578125,11.185709953308105,-0.9911994934082031,-1.4221558570861816
1683474285296727600,1.7447275390625,10.390835762023926,-0.4884171485900879,-1.0295066833496094
1683474285306706700,1.754706787109375,10.11789608001709,0.2561795711517334,-0.29209262132644653
1683474285316716500,1.764716552734375,9.696516990661621,1.05105459690094,0.9313444495201111
1683474285326726100,1.77472607421875,9.370905876159668,2.2146365642547607,1.400607943534851
1683474285336705500,1.78470556640625,9.030928611755371,3.1244332790374756,1.0319008827209473
1683474285346715400,1.79471533203125,7.987056732177734,2.715024709701538,0.8595184087753296
1683474285356725200,1.804725341796875,7.173028469085693,2.097320795059204,0.16519992053508759
1683474285366704400,1.814704345703125,7.524975776672363,0.8834604024887085,0.45010992884635925
1683474285376714200,1.82471435546875,8.719682693481445,-0.5315127968788147,1.7310078144073486
1683474285386723800,1.834723876953125,9.864110946655273,-1.4844050407409668,2.557007312774658
1683474285396703200,1.844703125,10.309432983398438,-2.027888774871826,2.4013843536376953
1683474285406712800,1.854712890625,10.469843864440918,-2.118868589401245,1.2665326595306396
1683474285416722400,1.864722412109375,10.441113471984863,-1.7190368175506592,-0.009576806798577309
1683474285426701800,1.874701904296875,10.187328338623047,-1.2186486721038818,-0.5434837937355042
1683474285436711700,1.884711669921875,10.216058731079102,-0.828393816947937,-0.14604631066322327
1683474285446721500,1.894721435546875,10.81460952758789,-0.7182605266571045,-0.06224924325942993
1683474285456700700,1.90470068359375,10.524910926818848,-0.5841852426528931,0.3734954595565796
1683474285466710500,1.91471044921875,10.359710693359375,-0.5315127968788147,0.29209262132644653
1683474285476720400,1.924720458984375,9.952696800231934,-0.6584054827690125,-0.22266076505184174
1683474285486699500,1.934699462890625,9.41400146484375,-0.8140285611152649,-0.5171475410461426
1683474285496709000,1.944709228515625,8.865729331970215,-1.01753568649292,-0.24899697303771973
1683474285506719000,1.954718994140625,9.53849983215332,-1.1971008777618408,1.4652514457702637
1683474285516698000,1.964697998046875,11.192893028259277,-2.164358377456665,3.974374771118164
1683474285526708000,1.9747080078125,12.315773963928223,-3.2106244564056396,5.894524574279785
1683474285536717800,1.9847177734375,12.107478141784668,-2.0015525817871094,3.9169139862060547
1683474285546727400,1.9947275390625,10.165780067443848,-0.4620809257030487,1.7597382068634033
1683474285556706800,2.004706787109375,9.605537414550781,0.0933738648891449,0.36152446269989014
1683474285566716700,2.014716552734375,10.237606048583984,-0.20350714027881622,0.14365209639072418
1683474285576726300,2.024726318359375,10.828974723815918,-0.4381389021873474,0.3423708379268646
1683474285586705700,2.03470556640625,10.83855152130127,-0.5722141861915588,0.5410895943641663
1683474285596715300,2.04471533203125,10.409989356994629,-0.730231523513794,0.4644751250743866
1683474285606725000,2.05472509765625,10.120290756225586,-0.8858546018600464,0.3280056416988373
1683474285616704500,2.06470458984375,10.484209060668945,-1.1324573755264282,0.13407529890537262
1683474285626714000,2.074714111328125,10.335768699645996,-1.1755530834197998,0.19632454216480255
1683474285636723700,2.0847236328125,10.251971244812012,-1.039083480834961,0.1843535304069519
1683474285646703000,2.094703125,10.295066833496094,-0.8834604024887085,0.05267243832349777
1683474285656713000,2.104712890625,9.971850395202637,-0.6177040338516235,-0.1604115068912506
1683474285666722800,2.114722900390625,9.433155059814453,-0.26815059781074524,-0.2849099934101105
1683474285676702000,2.124701904296875,8.990227699279785,0.047884032130241394,-0.45250412821769714
1683474285686711800,2.1347119140625,8.44434928894043,0.5674257874488831,-0.24420857429504395
1683474285696721400,2.144721435546875,8.779537200927734,0.9696516990661621,-0.5171475410461426
1683474285706700800,2.15470068359375,9.071630477905273,0.9289502501487732,-0.7733271718025208
1683474285716710400,2.16471044921875,9.248801231384277,0.689530074596405,-0.6991068720817566
1683474285726720300,2.17472021484375,9.545681953430176,0.4405331015586853,-0.3423708379268646
1683474285736699400,2.184699462890625,9.782708168029785,0.5985504388809204,-0.2801215946674347
1683474285746709200,2.194709228515625,9.93593692779541,0.5770025849342346,-0.4668693244457245
1683474285756719000,2.204718994140625,9.940725326538086,0.4812345504760742,-0.5554547905921936
1683474285766698200,2.2146982421875,10.02691650390625,0.3902548849582672,-0.33997663855552673
1683474285776708000,2.2247080078125,10.235212326049805,0.363918662071228,0.014365210197865963
1683474285786718000,2.234718017578125,10.38604736328125,0.3663128614425659,0.22266076505184174
1683474285796727600,2.2447275390625,10.304644584655762,0.3974374830722809,0.17238251864910126
1683474285806706700,2.254706787109375,10.158597946166992,0.45489832758903503,-0.043095629662275314
1683474285816716500,2.264716552734375,10.014945983886719,0.4620809257030487,-0.15083470940589905
1683474285826726100,2.27472607421875,9.955090522766113,0.3471592366695404,-0.17717093229293823
1683474285836705500,2.28470556640625,9.852140426635742,0.2585737705230713,-0.1628057211637497
1683474285846715400,2.29471533203125,9.782708168029785,0.15083470940589905,-0.15801730751991272
1683474285856725000,2.30472509765625,9.62947940826416,-0.023942016065120697,-0.12928688526153564
1683474285866704400,2.314704345703125,9.50737476348877,-0.17238251864910126,-0.10534487664699554
1683474285876714200,2.32471435546875,9.378087997436523,-0.2849099934101105,-0.05985504388809204
1683474285886723800,2.334723876953125,9.311050415039062,-0.3016694188117981,-0.011971008032560349
1683474285896703000,2.344702880859375,9.387664794921875,-0.33279404044151306,-0.023942016065120697
1683474285906712800,2.354712890625,9.457097053527832,-0.24660277366638184,-0.08858546614646912
1683474285916722700,2.36472265625,9.524134635925293,-0.12210428714752197,-0.10295066982507706
1683474285926701800,2.374701904296875,9.622296333312988,-0.08858546614646912,-0.08140286058187485
1683474285936711700,2.384711669921875,9.636661529541016,-0.0454898327589035,-0.08858546614646912
1683474285946721300,2.39472119140625,9.62947940826416,-0.05506663769483566,-0.17238251864910126
1683474285956700700,2.40470068359375,9.694122314453125,-0.13407529890537262,-0.19871874153614044
1683474285967116500,2.415116455078125,9.732429504394531,-0.26815059781074524,-0.19153612852096558
1683474285977126400,2.42512646484375,9.708487510681152,-0.35434186458587646,-0.17238251864910126
1683474285987105500,2.43510546875,9.62947940826416,-0.4836287498474121,-0.21547815203666687
1683474285997115400,2.445115478515625,9.725247383117676,-0.48602294921875,-0.08379705995321274
1683474286007125000,2.455125,9.852140426635742,-0.33279404044151306,0.12449848651885986
1683474286017104400,2.4651044921875,9.84495735168457,-0.22266076505184174,0.19632454216480255
1683474286027114000,2.475114013671875,9.75397777557373,-0.16759411990642548,0.10295066982507706
1683474286037123800,2.485123779296875,9.679757118225098,-0.16519992053508759,0.10295066982507706
1683474286047133400,2.495133544921875,9.708487510681152,-0.1604115068912506,0.15083470940589905
1683474286057112800,2.50511279296875,9.737217903137207,-0.14604631066322327,0.2059013396501541
1683474286067122700,2.515122802734375,9.732429504394531,-0.18914192914962769,0.26575639843940735
1683474286077132300,2.52513232421875,9.761159896850586,-0.2753331959247589,0.26336219906806946
1683474286087111700,2.535111572265625,9.773131370544434,-0.38307225704193115,0.24899697303771973
1683474286097121500,2.54512158203125,9.859322547912598,-0.4572925269603729,0.28730419278144836
1683474286107131100,2.555131103515625,9.962273597717285,-0.44771572947502136,0.31124621629714966
1683474286117110300,2.5651103515625,9.995792388916016,-0.4189853072166443,0.3758896589279175
1683474286127120100,2.5751201171875,9.919178009033203,-0.4141969084739685,0.3998316824436188
1683474286137129700,2.585129638671875,9.86889934539795,-0.4165911078453064,0.43335050344467163
1683474286147109000,2.595109130859375,9.861717224121094,-0.42856210470199585,0.5027823448181152
1683474286157119000,2.605118896484375,9.81143856048584,-0.40701428055763245,0.5626373887062073
1683474286167128600,2.615128662109375,9.801861763000488,-0.3926490843296051,0.5889736413955688
1683474286177108000,2.62510791015625,9.919178009033203,-0.3495534360408783,0.6416460275650024
1683474286187117800,2.635117919921875,9.983820915222168,-0.304063618183136,0.6248866319656372
1683474286197127700,2.645127685546875,9.907206535339355,-0.3256114423274994,0.545877993106842
1683474286207106800,2.65510693359375,9.8784761428833,-0.3878606855869293,0.44771572947502136
1683474286217116400,2.665116455078125,9.895236015319824,-0.38546648621559143,0.49799394607543945
1683474286227126300,2.675126220703125,9.947908401489258,-0.35673606395721436,0.6057330369949341
1683474286237105400,2.68510546875,9.983820915222168,-0.33758243918418884,0.6607996821403503
1683474286247115300,2.695115234375,9.928754806518555,-0.3423708379268646,0.6488286852836609
1683474286257124900,2.705124755859375,9.847352027893066,-0.36152446269989014,0.5554547905921936
1683474286267104300,2.715104248046875,9.78989028930664,-0.3902548849582672,0.5147533416748047
1683474286277114000,2.725114013671875,9.804255485534668,-0.40462008118629456,0.5003881454467773
1683474286287124000,2.7351240234375,9.80904483795166,-0.4189853072166443,0.4620809257030487
1683474286297133600,2.745133544921875,9.80904483795166,-0.42616790533065796,0.5219359993934631
1683474286307113000,2.755113037109375,9.799467086791992,-0.43095630407333374,0.5434837937355042
1683474286317122600,2.76512255859375,9.763554573059082,-0.43335050344467163,0.5315127968788147
1683474286327132400,2.77513232421875,9.694122314453125,-0.42616790533065796,0.4812345504760742
1683474286337111800,2.78511181640625,9.679757118225098,-0.38307225704193115,0.4620809257030487
1683474286347121400,2.795121337890625,9.6989107131958,-0.33758243918418884,0.4812345504760742
1683474286357131300,2.80513134765625,9.72285270690918,-0.3734954595565796,0.49320554733276367
1683474286367110400,2.8151103515625,9.746794700622559,-0.38067805767059326,0.4668693244457245
1683474286377120300,2.825120361328125,9.749189376831055,-0.395043283700943,0.4357447028160095
1683474286387129900,2.8351298828125,9.715670585632324,-0.40462008118629456,0.4812345504760742
1683474286397109200,2.845109130859375,9.780313491821289,-0.3687070608139038,0.6272808313369751
1683474286407119000,2.855119140625,9.897629737854004,-0.272938996553421,0.7589619159698486
1683474286417128700,2.865128662109375,9.804255485534668,-0.18914192914962769,0.8523358106613159
1683474286427107800,2.87510791015625,9.895236015319824,-0.07900865375995636,0.9792284965515137
1683474286437117700,2.88511767578125,9.962273597717285,0.021547814831137657,1.1061211824417114
1683474286447127600,2.89512744140625,9.974244117736816,0.08619125932455063,1.2018892765045166
1683474286457106700,2.905106689453125,10.158597946166992,0.19393034279346466,1.290474772453308
1683474286467116500,2.915116455078125,10.333374977111816,0.23702596127986908,1.3646949529647827
1683474286477126400,2.92512646484375,10.398017883300781,0.17956513166427612,1.6136919260025024
1683474286487105500,2.93510546875,10.11550235748291,0.043095629662275314,2.1499931812286377
1683474286497115400,2.945115478515625,10.20887565612793,0.14365209639072418,1.8124107122421265
1683474286507125200,2.955125244140625,9.816226959228516,0.2322375625371933,1.601720929145813
1683474286517104400,2.9651044921875,9.68933391571045,0.22266076505184174,1.6089035272598267
1683474286527114000,2.975114013671875,9.761159896850586,0.2561795711517334,1.6280571222305298
1683474286537123800,2.985123779296875,9.974244117736816,0.15562310814857483,1.7525556087493896
1683474286547133700,2.9951337890625,10.326191902160645,-0.19632454216480255,1.8818424940109253
1683474286557112800,3.00511279296875,10.951078414916992,-0.16519992053508759,1.5849615335464478
1683474286567122700,3.015122802734375,10.991780281066895,-0.28969839215278625,1.3910311460494995
1683474286577132300,3.02513232421875,10.426748275756836,-0.33997663855552673,1.1779472827911377
1683474286587111700,3.035111572265625,9.682151794433594,-0.4165911078453064,0.8882488012313843
1683474286597121500,3.04512158203125,9.481039047241211,-0.28730419278144836,1.2210428714752197
1683474286607131400,3.05513134765625,9.62947940826416,-0.09576806426048279,1.721431016921997
1683474286617110500,3.065110595703125,10.046070098876953,0.395043283700943,3.28963303565979
1683474286627120000,3.0751201171875,9.806650161743164,0.507570743560791,4.302380561828613
1683474286637129700,3.085129638671875,9.919178009033203,0.4357447028160095,4.0078935623168945
1683474286647109000,3.095109130859375,9.703699111938477,0.17477671802043915,2.8107926845550537
1683474286657119000,3.105118896484375,9.981427192687988,0.363918662071228,1.7932571172714233
1683474286667128800,3.11512890625,9.430760383605957,-0.15801730751991272,1.5107412338256836
1683474286677108000,3.12510791015625,8.427590370178223,-0.569819986820221,0.9792284965515137
1683474286687117800,3.135117919921875,7.6111674308776855,-0.9888052940368652,0.21308395266532898
1683474286697127400,3.14512744140625,7.6782050132751465,-1.235408067703247,0.2968810200691223
1683474286707106800,3.15510693359375,7.972691535949707,-1.3215993642807007,0.7158663272857666
1683474286717116400,3.165116455078125,8.38449478149414,-1.357512354850769,0.6416460275650024
1683474286727126300,3.175126220703125,8.829815864562988,-1.0989385843276978,0.2968810200691223
1683474286737105400,3.18510546875,9.404424667358398,-0.5291185975074768,0.028730420395731926
1683474286747115300,3.195115234375,9.677363395690918,-0.3926490843296051,-0.5841852426528931
1683474286757125000,3.205125,9.691728591918945,-0.2849099934101105,-0.8044517636299133
1683474286767104300,3.215104248046875,9.50498104095459,-0.36152446269989014,-1.1013327836990356
1683474286777114000,3.225114013671875,9.169792175292969,-0.7326257228851318,-1.338358759880066
1683474286787124000,3.2351240234375,8.947132110595703,-1.1540051698684692,-1.3311761617660522
1683474286797133600,3.245133544921875,9.064447402954102,-1.4724340438842773,-1.2689268589019775
1683474286807113000,3.255113037109375,9.473855972290039,-1.4939818382263184,-1.1635819673538208
1683474286817122800,3.265122802734375,9.153033256530762,-1.2856862545013428,-1.1444283723831177
1683474286827132400,3.27513232421875,8.860940933227539,-0.9457096457481384,-1.0271124839782715
1683474286837111600,3.285111572265625,9.078812599182129,-0.6727706789970398,-0.3926490843296051
1683474286847121400,3.295121337890625,9.86650562286377,-0.2753331959247589,0.751779317855835
1683474286857131000,3.305131103515625,10.594342231750488,0.19632454216480255,0.6823474764823914
1683474286867110400,3.3151103515625,11.200075149536133,0.3998316824436188,0.8236053586006165
1683474286877120300,3.325120361328125,11.3269681930542,0.31364041566848755,1.1276689767837524
1683474286887129900,3.3351298828125,11.18092155456543,0.10295066982507706,1.070208191871643
1683474286897109200,3.345109130859375,10.790667533874512,-0.0933738648891449,0.828393816947937
1683474286907119000,3.355119140625,10.41956615447998,-0.1867477297782898,0.7852981686592102
1683474286917129000,3.36512890625,10.11550235748291,-0.15322890877723694,0.8906430602073669
1683474286927108000,3.375108154296875,9.943120002746582,-0.031124621629714966,0.9792284965515137
1683474286937117700,3.38511767578125,9.923966407775879,0.16519992053508759,1.1276689767837524
1683474286947127600,3.39512744140625,9.959878921508789,0.33758243918418884,1.170764684677124
1683474286957106700,3.405106689453125,10.072406768798828,0.3711012601852417,1.1827356815338135
1683474286967116500,3.415116455078125,10.093954086303711,0.3471592366695404,1.1803414821624756
1683474286977126400,3.42512646484375,10.000580787658691,0.26575639843940735,1.0989385843276978
1683474286987105500,3.43510546875,9.864110946655273,0.12449848651885986,0.9528923034667969
1683474286997115400,3.445115478515625,9.801861763000488,0.040701430290937424,0.9145850539207458
1683474287007125000,3.455125,9.919178009033203,0.090979665517807,0.9768342971801758
1683474287017104400,3.4651044921875,10.005369186401367,0.1628057211637497,1.048660397529602
1683474287027114000,3.475114013671875,9.998186111450195,0.28969839215278625,1.1109095811843872
1683474287037123800,3.485123779296875,9.931148529052734,0.3926490843296051,1.1276689767837524
1683474287047133400,3.495133544921875,9.890447616577148,0.4884171485900879,1.113303780555725
1683474287057112800,3.50511279296875,9.916783332824707,0.49799394607543945,1.1779472827911377
1683474287067366700,3.51536669921875,9.976638793945312,0.4189853072166443,1.1348515748977661
1683474287077132300,3.52513232421875,9.979032516479492,0.35913026332855225,1.2066776752471924
1683474287087111700,3.535111572265625,9.988609313964844,0.28969839215278625,1.2545616626739502
1683474287097121500,3.54512158203125,10.065223693847656,0.2106897532939911,1.2856862545013428
1683474287107131100,3.555131103515625,10.041281700134277,0.12449848651885986,1.335964560508728
1683474287117110300,3.5651103515625,9.911994934082031,0.10295066982507706,1.3048399686813354
1683474287127120100,3.5751201171875,9.792284965515137,0.13168109953403473,1.2186486721038818
1683474287137129700,3.585129638671875,9.75397777557373,0.20111294090747833,1.094150185585022
1683474287147109000,3.595109130859375,9.751583099365234,0.2825157940387726,1.072602391242981
1683474287157119000,3.605118896484375,9.799467086791992,0.31842881441116333,1.1300631761550903
1683474287167128600,3.615128662109375,9.813833236694336,0.2561795711517334,1.2473790645599365
1683474287177108000,3.62510791015625,9.914389610290527,0.15801730751991272,1.3742717504501343
1683474287187117800,3.635117919921875,9.995792388916016,0.0694318488240242,1.4413094520568848
1683474287197127700,3.645127685546875,10.005369186401367,0.019153613597154617,1.4532804489135742
1683474287207106800,3.65510693359375,9.909601211547852,-0.0454898327589035,1.45806884765625
1683474287217116400,3.665116455078125,9.703699111938477,-0.014365210197865963,1.3838485479354858
1683474287227126300,3.675126220703125,9.600749015808105,-0.009576806798577309,1.2186486721038818
1683474287237105700,3.685105712890625,9.5624418258667,0.021547814831137657,0.9768342971801758
1683474287247115300,3.695115234375,9.44991397857666,0.10295066982507706,0.8259995579719543
1683474287257124900,3.705124755859375,9.47146224975586,0.22266076505184174,0.9552865028381348
1683474287267104300,3.715104248046875,9.488221168518066,0.31603461503982544,1.1180921792984009
1683474287277114000,3.725114013671875,9.433155059814453,0.3711012601852417,1.2737152576446533
1683474287287124000,3.7351240234375,9.481039047241211,0.3471592366695404,1.3431471586227417
1683474287297133600,3.745133544921875,9.394847869873047,0.26096799969673157,1.3670891523361206
1683474287307113000,3.755113037109375,9.394847869873047,0.16759411990642548,1.2473790645599365
1683474287317122800,3.765122802734375,9.445125579833984,0.11971008777618408,1.1085153818130493
1683474287327132400,3.77513232421875,9.524134635925293,0.13168109953403473,1.0223240852355957
1683474287337111800,3.78511181640625,9.622296333312988,0.2059013396501541,1.015141487121582
1683474287347121400,3.795121337890625,9.710882186889648,0.26815059781074524,1.05105459690094
1683474287357131300,3.80513134765625,9.725247383117676,0.2825157940387726,1.0654197931289673
1683474287367110400,3.8151103515625,9.674968719482422,0.2825157940387726,1.0223240852355957
1683474287377120300,3.825120361328125,9.653421401977539,0.2537853717803955,0.9361328482627869
1683474287387129900,3.8351298828125,9.749189376831055,0.26336219906806946,0.8858546018600464
1683474287397109200,3.845109130859375,9.794678688049316,0.24660277366638184,0.9481038451194763
1683474287407119000,3.855119140625,9.794678688049316,0.24660277366638184,1.0869675874710083
1683474287417128700,3.865128662109375,9.818621635437012,0.2801215946674347,1.1755530834197998
1683474287427107800,3.87510791015625,9.746794700622559,0.2825157940387726,1.1228805780410767
1683474287437117700,3.88511767578125,9.648633003234863,0.20350714027881622,0.9600749015808105
1683474287447127600,3.89512744140625,9.636661529541016,0.14365209639072418,0.849941611289978
1683474287457106700,3.905106689453125,9.655815124511719,0.09816227108240128,0.7733271718025208
1683474287467116500,3.915116455078125,9.751583099365234,0.10534487664699554,0.8834604024887085
1683474287477126400,3.92512646484375,9.883264541625977,0.10773907601833344,1.0031704902648926
1683474287487105500,3.93510546875,10.053253173828125,0.1412578970193863,1.0462661981582642
1683474287497115400,3.945115478515625,10.15141487121582,0.14844051003456116,1.0127472877502441
1683474287507125200,3.955125244140625,10.120290756225586,0.17717093229293823,0.9911994934082031
1683474287517104400,3.9651044921875,9.926360130310059,0.13168109953403473,0.9026140570640564
1683474287527114000,3.975114013671875,9.799467086791992,0.1364694982767105,0.8403648138046265
1683474287537123800,3.985123779296875,9.732429504394531,0.07661445438861847,0.7924807667732239
1683474287547133400,3.995133544921875,9.763554573059082,-0.035913024097681046,0.6536170840263367
1683474287557112800,4.00511279296875,9.81143856048584,-0.09816227108240128,0.47884035110473633
1683474287567122700,4.015122802734375,9.864110946655273,-0.19632454216480255,0.3280056416988373
1683474287577132300,4.02513232421875,9.742006301879883,-0.2561795711517334,0.31603461503982544
1683474287587111700,4.035111572265625,9.770736694335938,-0.1867477297782898,0.38546648621559143
1683474287597121500,4.04512158203125,9.84495735168457,-0.1867477297782898,0.45010992884635925
1683474287607131400,4.05513134765625,9.828198432922363,-0.17956513166427612,0.4357447028160095
1683474287617110500,4.065110595703125,9.68933391571045,-0.16998831927776337,0.38546648621559143
1683474287627120000,4.0751201171875,9.59596061706543,-0.18914192914962769,0.3232172429561615
1683474287637129700,4.085129638671875,9.536105155944824,-0.3711012601852417,0.26815059781074524
1683474287647109000,4.095109130859375,9.660603523254395,-0.6105214357376099,0.15322890877723694
1683474287657119000,4.105118896484375,9.904812812805176,-0.8044517636299133,0.08858546614646912
1683474287667128800,4.11512890625,9.96945571899414,-0.667982280254364,0.17956513166427612
1683474287677108000,4.12510791015625,9.90241813659668,-0.6105214357376099,0.22744916379451752
1683474287687117800,4.135117919921875,9.603142738342285,-0.5841852426528931,0.23702596127986908
1683474287697127400,4.14512744140625,9.14585018157959,-0.6871358752250671,-0.028730420395731926
1683474287707106800,4.15510693359375,8.772355079650879,-0.8140285611152649,-0.44532153010368347
1683474287717116400,4.165116455078125,8.829815864562988,-0.8547300100326538,-0.4405331015586853
1683474287727126300,4.175126220703125,8.80587387084961,-0.8307880163192749,-0.5099649429321289
1683474287737105700,4.185105712890625,9.042900085449219,-0.6823474764823914,-0.45489832758903503
1683474287747115300,4.195115234375,9.648633003234863,-0.5722141861915588,-0.1149216815829277
1683474287757124900,4.205124755859375,10.211270332336426,-0.6224924325942993,0.30885201692581177
1683474287767104300,4.215104248046875,10.235212326049805,-0.8978256583213806,0.3064578175544739
1683474287777114000,4.225114013671875,10.096348762512207,-0.9744400978088379,0.5003881454467773
1683474287787124000,4.2351240234375,9.84495735168457,-1.0869675874710083,0.751779317855835
1683474287797133600,4.245133544921875,9.801861763000488,-1.3407529592514038,0.9648633003234863
1683474287807113000,4.255113037109375,9.940725326538086,-1.357512354850769,0.7038952708244324
1683474287817122800,4.265122802734375,9.99339771270752,-1.235408067703247,0.2825157940387726
1683474287827132400,4.27513232421875,10.010157585144043,-1.2210428714752197,0.15801730751991272
1683474287837111800,4.28511181640625,9.943120002746582,-1.1348515748977661,-0.2561795711517334
1683474287847121400,4.295121337890625,10.000580787658691,-1.091755986213684,-0.7254431247711182
1683474287857131000,4.305131103515625,10.04846477508545,-1.1516109704971313,-1.4867992401123047
1683474287867110400,4.3151103515625,10.20648193359375,-1.4197616577148438,-1.965639591217041
1683474287877120300,4.325120361328125,10.1753568649292,-1.8531121015548706,-1.8411411046981812
1683474287887129900,4.3351298828125,10.287884712219238,-1.9512743949890137,-0.7206547260284424
1683474287897109200,4.345109130859375,10.347740173339844,-1.8938134908676147,0.2346317619085312
1683474287907119000,4.355119140625,10.228029251098633,-1.7070658206939697,1.05105459690094
1683474287917128700,4.365128662109375,10.06043529510498,-1.4532804489135742,1.4676456451416016
1683474287927108000,4.375108154296875,9.880870819091797,-1.1827356815338135,1.6136919260025024
1683474287937117700,4.38511767578125,9.77791976928711,-0.9816226959228516,1.5418659448623657
1683474287947127600,4.39512744140625,9.792284965515137,-0.8379706144332886,1.3694833517074585
1683474287957106700,4.405106689453125,9.832986831665039,-0.7110779285430908,1.1971008777618408
1683474287967116500,4.415116455078125,9.854534149169922,-0.5506663918495178,0.9864110946655273
1683474287977126400,4.42512646484375,9.890447616577148,-0.4596867263317108,0.6536170840263367
1683474287987105500,4.43510546875,9.876082420349121,-0.40701428055763245,0.3208230137825012
1683474287997115400,4.445115478515625,9.799467086791992,-0.4189853072166443,0.05746084079146385
1683474288007125200,4.455125244140625,9.619902610778809,-0.5027823448181152,-0.043095629662275314
1683474288017104400,4.4651044921875,9.459490776062012,-0.569819986820221,0.033518824726343155
1683474288027114000,4.475114013671875,9.320627212524414,-0.5027823448181152,0.3926490843296051
1683474288037123800,4.485123779296875,9.361329078674316,-0.3902548849582672,0.8523358106613159
1683474288047133400,4.495133544921875,9.476250648498535,-0.2106897532939911,1.37906014919281
1683474288057112800,4.50511279296875,9.519346237182617,0.014365210197865963,1.8770540952682495
1683474288067122700,4.515122802734375,9.59835433959961,0.10055647045373917,2.0159177780151367
1683474288077132300,4.52513232421875,9.737217903137207,0.0454898327589035,1.7262194156646729
1683474288087111700,4.535111572265625,9.531316757202148,0.26815059781074524,1.534683346748352
1683474288097121500,4.54512158203125,9.564835548400879,0.47405192255973816,1.3287819623947144
1683474288107131400,4.55513134765625,9.80904483795166,0.5434837937355042,1.2282254695892334
1683474288117110500,4.565110595703125,9.967061996459961,0.507570743560791,1.1851298809051514
1683474288127120100,4.5751201171875,9.962273597717285,0.5195417404174805,1.0654197931289673
1683474288137129700,4.585129638671875,9.895236015319824,0.5339069962501526,0.9624691009521484
1683474288147109000,4.595109130859375,9.840168952941895,0.5291185975074768,0.9744400978088379
1683474288157119000,4.605118896484375,9.818621635437012,0.45010992884635925,1.0223240852355957
1683474288167128800,4.61512890625,9.859322547912598,0.38067805767059326,1.113303780555725
1683474288177108000,4.62510791015625,9.909601211547852,0.3232172429561615,1.280897855758667
1683474288187117800,4.635117919921875,9.849745750427246,0.31124621629714966,1.3958195447921753
1683474288197127400,4.64512744140625,9.780313491821289,0.26815059781074524,1.3934253454208374
1683474288207106800,4.65510693359375,9.749189376831055,0.1412578970193863,1.2737152576446533
1683474288217116400,4.665116455078125,9.691728591918945,0.08858546614646912,1.0462661981582642
1683474288227126300,4.675126220703125,9.615114212036133,0.07900865375995636,0.849941611289978
1683474288237105700,4.685105712890625,9.636661529541016,-0.043095629662275314,0.689530074596405
1683474288247115300,4.695115234375,9.612719535827637,-0.14365209639072418,0.5817909836769104
1683474288257124900,4.705124755859375,9.605537414550781,-0.17717093229293823,0.45010992884635925
1683474288267104300,4.715104248046875,9.641449928283691,-0.1867477297782898,0.3758896589279175
1683474288277114000,4.725114013671875,9.794678688049316,-0.20111294090747833,0.3280056416988373
1683474288287124000,4.7351240234375,9.945513725280762,-0.19871874153614044,0.2992752194404602
1683474288297133600,4.745133544921875,10.086771965026855,-0.17477671802043915,0.3423708379268646
1683474288307113000,4.755113037109375,10.139444351196289,-0.16759411990642548,0.49559974670410156
1683474288317122800,4.765122802734375,10.132261276245117,-0.15083470940589905,0.6129156351089478
1683474288327132400,4.77513232421875,10.091560363769531,-0.12449848651885986,0.6224924325942993
1683474288337111800,4.78511181640625,10.041281700134277,-0.1412578970193863,0.5506663918495178
1683474288347121400,4.795121337890625,9.974244117736816,-0.13168109953403473,0.4812345504760742
1683474288357131000,4.805131103515625,9.9000244140625,-0.17717093229293823,0.37828385829925537
1683474288367110400,4.8151103515625,9.847352027893066,-0.14604631066322327,0.304063618183136
1683474288377120300,4.825120361328125,9.804255485534668,-0.13407529890537262,0.29209262132644653
1683474288387129900,4.8351298828125,9.768342971801758,-0.10295066982507706,0.35434186458587646
1683474288397109200,4.845109130859375,9.749189376831055,-0.08379705995321274,0.44771572947502136
1683474288407119000,4.855119140625,9.725247383117676,0.009576806798577309,0.5434837937355042
1683474288417128700,4.865128662109375,9.679757118225098,0.06224924325942993,0.5913678407669067
1683474288427108000,4.875108154296875,9.619902610778809,0.08140286058187485,0.629675030708313
1683474288437117700,4.88511767578125,9.550470352172852,0.10295066982507706,0.6440402865409851
1683474288447127600,4.89512744140625,9.493009567260742,0.090979665517807,0.6248866319656372
1683474288457106700,4.905106689453125,9.44991397857666,0.10773907601833344,0.569819986820221
1683474288467116500,4.915116455078125,9.464279174804688,0.08140286058187485,0.47884035110473633
1683474288477126400,4.92512646484375,9.593565940856934,0.05746084079146385,0.35673606395721436
1683474288487105500,4.93510546875,9.710882186889648,0.033518824726343155,0.28730419278144836
1683474288497115400,4.945115478515625,9.835380554199219,0.021547814831137657,0.31124621629714966
1683474288507125200,4.955125244140625,9.880870819091797,0.009576806798577309,0.33279404044151306
1683474288517104400,4.9651044921875,9.895236015319824,-0.040701430290937424,0.2992752194404602
1683474288527114200,4.9751142578125,9.765948295593262,-0.07422025501728058,0.2346317619085312
1683474288537123800,4.985123779296875,9.684545516967773,-0.05506663769483566,0.22026655077934265
1683474288547133400,4.995133544921875,9.691728591918945,-0.047884032130241394,0.2825157940387726
1683474288557112800,5.00511279296875,9.713275909423828,-0.0933738648891449,0.3423708379268646
1683474288567122700,5.015122802734375,9.770736694335938,-0.12928688526153564,0.42616790533065796
1683474288577132300,5.02513232421875,9.813833236694336,-0.10055647045373917,0.48602294921875
1683474288587111700,5.035111572265625,9.854534149169922,-0.09816227108240128,0.49799394607543945
1683474288597121500,5.04512158203125,9.835380554199219,-0.08379705995321274,0.4884171485900879
1683474288607131400,5.05513134765625,9.785101890563965,-0.07661445438861847,0.4596867263317108
1683474288617110500,5.065110595703125,9.732429504394531,-0.09576806426048279,0.4189853072166443
1683474288627120000,5.0751201171875,9.646238327026367,-0.08379705995321274,0.4213795065879822
1683474288637129700,5.085129638671875,9.528923034667969,-0.06703764945268631,0.4644751250743866
1683474288647109000,5.095109130859375,9.473855972290039,-0.031124621629714966,0.4644751250743866
1683474288657119000,5.105118896484375,9.473855972290039,-0.0454898327589035,0.4118026793003082
1683474288667128800,5.11512890625,9.500192642211914,-0.05985504388809204,0.40462008118629456
1683474288677108000,5.12510791015625,9.567230224609375,-0.07900865375995636,0.3256114423274994
1683474288687117800,5.135117919921875,9.639056205749512,-0.10534487664699554,0.2561795711517334
1683474288697127400,5.14512744140625,9.641449928283691,-0.22505496442317963,0.16998831927776337
1683474288707106800,5.15510693359375,9.615114212036133,-0.3423708379268646,0.10534487664699554
1683474288717116400,5.165116455078125,9.682151794433594,-0.42377370595932007,0.016759412363171577
1683474288727126300,5.175126220703125,9.761159896850586,-0.4620809257030487,0.10055647045373917
1683474288737105700,5.185105712890625,9.876082420349121,-0.507570743560791,0.2801215946674347
1683474288747115300,5.195115234375,9.976638793945312,-0.5339069962501526,0.42856210470199585
1683474288757124900,5.205124755859375,10.02691650390625,-0.5626373887062073,0.4692635238170624
1683474288767104300,5.215104248046875,9.725247383117676,-0.5770025849342346,0.43335050344467163
1683474288777114000,5.225114013671875,9.390059471130371,-0.4429273009300232,-0.2082955539226532
1683474288787124000,5.2351240234375,8.741230010986328,-0.9097966551780701,-0.8188169598579407
1683474288797133600,5.245133544921875,8.5903959274292,-1.0103530883789062,-0.6488286852836609
1683474288807113000,5.255113037109375,8.78432559967041,-0.8140285611152649,-0.7158663272857666
1683474288817122800,5.265122802734375,9.009381294250488,-0.871489405632019,-1.2952631711959839
1683474288827132400,5.27513232421875,9.0859956741333,-1.115697979927063,-1.9919757843017578
1683474288837111800,5.28511181640625,9.160215377807617,-1.3670891523361206,-2.121262788772583
1683474288847121400,5.295121337890625,9.497797966003418,-1.4772224426269531,-1.335964560508728
1683474288857131000,5.305131103515625,9.8784761428833,-1.5514427423477173,-0.08379705995321274
1683474288867110400,5.3151103515625,10.146626472473145,-1.6112977266311646,1.192312479019165
1683474288877120300,5.325120361328125,10.505757331848145,-1.4245500564575195,2.185906171798706
1683474288887129900,5.3351298828125,10.589553833007812,-1.05105459690094,3.2992098331451416
1683474288897109200,5.345109130859375,10.503362655639648,-0.6871358752250671,3.734954595565796
1683474288907119000,5.355119140625,10.29746150970459,-0.5770025849342346,3.2561142444610596
1683474288917128700,5.365128662109375,10.127472877502441,-0.7038952708244324,2.205059766769409
1683474288927108000,5.375108154296875,10.146626472473145,-0.9097966551780701,1.4915876388549805
1683474288937117700,5.38511767578125,10.228029251098633,-1.1516109704971313,1.01753568649292
1683474288947127600,5.39512744140625,10.251971244812012,-1.256955862045288,0.849941611289978
1683474288957106700,5.405106689453125,10.14902114868164,-1.3072341680526733,0.9265560507774353
1683474288967116500,5.415116455078125,10.160991668701172,-1.3766659498214722,1.015141487121582
1683474288977126400,5.42512646484375,10.273519515991211,-1.3862427473068237,1.0773907899856567
1683474288987105500,5.43510546875,10.56800651550293,-1.5514427423477173,1.0678139925003052
1683474288997115400,5.445115478515625,10.687716484069824,-1.6759412288665771,1.0797849893569946
1683474289007125200,5.455125244140625,10.196905136108398,-1.5921441316604614,1.290474772453308
1683474289017104400,5.4651044921875,8.815450668334961,-1.2832920551300049,1.1276689767837524
1683474289027114000,5.475114013671875,9.313444137573242,-1.5705963373184204,1.2114660739898682
1683474289037123800,5.485123779296875,9.370905876159668,-1.6136919260025024,1.3407529592514038
1683474289047133400,5.495133544921875,9.545681953430176,-1.6065093278884888,1.338358759880066
1683474289057112800,5.50511279296875,9.653421401977539,-1.742978811264038,0.7805097699165344
1683474289067122700,5.515122802734375,9.751583099365234,-1.8148049116134644,-0.23942017555236816
1683474289077132300,5.52513232421875,9.895236015319824,-1.6950948238372803,-1.0582371950149536
1683474289087111700,5.535111572265625,10.012551307678223,-1.7190368175506592,-1.0965443849563599
1683474289097121500,5.54512158203125,10.072406768798828,-1.7477672100067139,-0.47165772318840027
1683474289107131400,5.55513134765625,10.251971244812012,-1.702277421951294,0.3663128614425659
1683474289117110500,5.565110595703125,10.228029251098633,-1.721431016921997,0.9361328482627869
1683474289127120100,5.5751201171875,9.952696800231934,-1.702277421951294,1.2976573705673218
1683474289137129700,5.585129638671875,9.770736694335938,-1.6639702320098877,1.403002142906189
1683474289147109000,5.595109130859375,9.710882186889648,-1.53707754611969,1.1252747774124146
1683474289157119000,5.605118896484375,9.607931137084961,-1.3263877630233765,0.6607996821403503
1683474289167128800,5.61512890625,9.75397777557373,-0.9576807022094727,-0.272938996553421
1683474289177108000,5.62510791015625,9.488221168518066,0.05985504388809204,-1.5322890281677246
1683474289187117800,5.635117919921875,9.311050415039062,-0.181959331035614,-1.4628572463989258
1683474289197127400,5.64512744140625,9.32302188873291,-1.0319008827209473,-0.3016694188117981
1683474289207106800,5.65510693359375,9.255983352661133,-1.7190368175506592,0.9624691009521484
1683474289217116400,5.665116455078125,9.232041358947754,-2.1284453868865967,1.8315643072128296
1683474289227126300,5.675126220703125,7.65186882019043,-2.231395959854126,1.2521674633026123
1683474289237105700,5.685105712890625,6.9240312576293945,-1.9345149993896484,1.7764976024627686
1683474289247115300,5.695115234375,8.283937454223633,-1.742978811264038,3.4117374420166016
1683474289257124900,5.705124755859375,9.17697525024414,-1.4437036514282227,4.76924991607666
1683474289267104300,5.715104248046875,10.448296546936035,-1.5275006294250488,2.9328970909118652
1683474289277114000,5.725114013671875,10.41956615447998,-1.6663644313812256,1.920149803161621
1683474289287124000,5.7351240234375,10.24000072479248,-1.3670891523361206,0.9840168952941895
1683474289297133600,5.745133544921875,9.610325813293457,-1.0007762908935547,0.6871358752250671
1683474289307113000,5.755113037109375,9.29189682006836,-0.7829039692878723,0.6536170840263367
1683474289317122800,5.765122802734375,9.287108421325684,-0.6847416758537292,0.689530074596405
1683474289327132400,5.77513232421875,9.485827445983887,-0.6344634294509888,0.8307880163192749
1683474289337111800,5.78511181640625,9.78989028930664,-0.6703764796257019,1.1875240802764893
1683474289347121400,5.795121337890625,9.947908401489258,-0.7422025203704834,1.5729905366897583
1683474289357131000,5.805131103515625,10.18493366241455,-0.849941611289978,1.53707754611969
1683474289367110400,5.8151103515625,10.309432983398438,-1.0127472877502441,1.4317326545715332
1683474289377120300,5.825120361328125,10.505757331848145,-1.158793568611145,1.2641384601593018
1683474289387129900,5.8351298828125,10.730812072753906,-1.2665326595306396,1.1252747774124146
1683474289397109200,5.845109130859375,10.776301383972168,-1.2689268589019775,0.9648633003234863
1683474289407119000,5.855119140625,10.213664054870605,-1.1827356815338135,0.8738836050033569
1683474289417128700,5.865128662109375,10.369287490844727,-1.2258312702178955,0.6153098344802856
1683474289427108000,5.875108154296875,10.819397926330566,-1.0319008827209473,0.8571242094039917
1683474289437117700,5.88511767578125,10.548852920532227,-1.0989385843276978,0.5602431893348694
1683474289447127600,5.89512744140625,10.062829971313477,-0.9050082564353943,0.5722141861915588
1683474289457106700,5.905106689453125,10.096348762512207,-0.8044517636299133,0.5793967843055725
1683474289467116500,5.915116455078125,9.837775230407715,-0.7038952708244324,0.45250412821769714
1683474289477126400,5.92512646484375,9.830592155456543,-0.586579442024231,0.17956513166427612
1683474289487105500,5.93510546875,9.859322547912598,-0.5937620401382446,0.15083470940589905
1683474289497115400,5.945115478515625,9.926360130310059,-0.6344634294509888,0.2561795711517334
1683474289507125200,5.955125244140625,9.95748519897461,-0.6751648783683777,0.33997663855552673
1683474289517104400,5.9651044921875,9.895236015319824,-0.7086837291717529,0.4668693244457245
1683474289527114000,5.975114013671875,9.81143856048584,-0.706289529800415,0.4165911078453064
1683474289537123800,5.985123779296875,9.696516990661621,-0.646434485912323,0.24899697303771973
1683474289547133400,5.995133544921875,9.44991397857666,-0.5985504388809204,0.36152446269989014
1683474289557112800,6.00511279296875,9.387664794921875,-0.5219359993934631,0.38546648621559143
1683474289567122700,6.015122802734375,9.3828763961792,-0.4812345504760742,0.36152446269989014
1683474289577132300,6.02513232421875,9.409213066101074,-0.48602294921875,0.4165911078453064
1683474289587111700,6.035111572265625,9.423578262329102,-0.5123591423034668,0.5889736413955688
1683474289597121500,6.04512158203125,9.411606788635254,-0.5650315880775452,0.7158663272857666
1683474289607131400,6.05513134765625,9.425971984863281,-0.6320692300796509,0.7206547260284424
1683474289617110500,6.065110595703125,9.452308654785156,-0.6703764796257019,0.6607996821403503
1683474289627120000,6.0751201171875,9.461885452270508,-0.6488286852836609,0.5889736413955688
1683474289637129700,6.085129638671875,9.493009567260742,-0.5770025849342346,0.5027823448181152
1683474289647109000,6.095109130859375,9.57441234588623,-0.5147533416748047,0.4141969084739685
1683474289657119000,6.105118896484375,9.720458984375,-0.45010992884635925,0.3208230137825012
1683474289667128800,6.11512890625,9.904812812805176,-0.4141969084739685,0.23942017555236816
1683474289677108000,6.12510791015625,10.125079154968262,-0.3974374830722809,0.23702596127986908
1683474289687117800,6.135117919921875,10.170568466186523,-0.38546648621559143,0.23942017555236816
1683474289697127400,6.14512744140625,10.089165687561035,-0.38067805767059326,0.17477671802043915
1683474289707106800,6.15510693359375,9.837775230407715,-0.3998316824436188,0.17477671802043915
1683474289717116400,6.165116455078125,9.66539192199707,-0.4118026793003082,0.2346317619085312
1683474289727126300,6.175126220703125,9.536105155944824,-0.4908113479614258,0.2585737705230713
1683474289737105700,6.185105712890625,9.481039047241211,-0.5554547905921936,0.3423708379268646
1683474289747115300,6.195115234375,9.473855972290039,-0.5961562395095825,0.35434186458587646
1683474289757124900,6.205124755859375,9.50498104095459,-0.6200982332229614,0.40940847992897034
1683474289767104300,6.215104248046875,9.588777542114258,-0.6105214357376099,0.4644751250743866
1683474289777114000,6.225114013671875,9.701305389404297,-0.5985504388809204,0.4812345504760742
1683474289787124000,6.2351240234375,9.823410034179688,-0.5722141861915588,0.4357447028160095
1683474289797133600,6.245133544921875,9.888052940368652,-0.5602431893348694,0.43335050344467163
1683474289807113000,6.255113037109375,9.971850395202637,-0.5506663918495178,0.4692635238170624
1683474289817122800,6.265122802734375,9.995792388916016,-0.5147533416748047,0.5315127968788147
1683474289827132400,6.27513232421875,9.95748519897461,-0.5291185975074768,0.5339069962501526
1683474289837111800,6.28511181640625,9.892841339111328,-0.5315127968788147,0.5195417404174805
1683474289847121400,6.295121337890625,9.799467086791992,-0.545877993106842,0.5363011956214905
1683474289857131000,6.305131103515625,9.737217903137207,-0.5171475410461426,0.5578489899635315
1683474289867110400,6.3151103515625,9.742006301879883,-0.5339069962501526,0.5793967843055725
1683474289877120300,6.325120361328125,9.765948295593262,-0.5267243981361389,0.5793967843055725
1683474289887129900,6.3351298828125,9.864110946655273,-0.5123591423034668,0.5386953949928284
1683474289897109200,6.345109130859375,9.923966407775879,-0.5291185975074768,0.5219359993934631
1683474289907119000,6.355119140625,9.885659217834473,-0.49559974670410156,0.5171475410461426
1683474289917128700,6.365128662109375,9.823410034179688,-0.47644615173339844,0.5003881454467773
1683474289927108000,6.375108154296875,9.742006301879883,-0.5051765441894531,0.4836287498474121
1683474289937117700,6.38511767578125,9.674968719482422,-0.4884171485900879,0.507570743560791
1683474289947127600,6.39512744140625,9.605537414550781,-0.48602294921875,0.5147533416748047
1683474289957106700,6.405106689453125,9.567230224609375,-0.5051765441894531,0.5363011956214905
1683474289967116500,6.415116455078125,9.576807022094727,-0.5171475410461426,0.569819986820221
1683474289977126400,6.42512646484375,9.627084732055664,-0.49320554733276367,0.5626373887062073
1683474289987105500,6.43510546875,9.691728591918945,-0.5219359993934631,0.5267243981361389
1683474289997115400,6.445115478515625,9.765948295593262,-0.5410895943641663,0.5315127968788147
1683474290007125200,6.455125244140625,9.801861763000488,-0.5650315880775452,0.545877993106842
1683474290017104400,6.4651044921875,9.859322547912598,-0.5889736413955688,0.5602431893348694
1683474290027114000,6.475114013671875,9.876082420349121,-0.5817909836769104,0.5889736413955688
1683474290037123800,6.485123779296875,9.890447616577148,-0.5650315880775452,0.5530605912208557
1683474290047133400,6.495133544921875,9.921571731567383,-0.5817909836769104,0.4812345504760742
1683474290057112800,6.50511279296875,9.947908401489258,-0.545877993106842,0.395043283700943
1683474290067122700,6.515122802734375,9.8784761428833,-0.524330198764801,0.3663128614425659
1683474290077132300,6.52513232421875,9.787496566772461,-0.4836287498474121,0.2849099934101105
1683474290087111700,6.535111572265625,9.739612579345703,-0.45250412821769714,0.20111294090747833
1683474290097121500,6.54512158203125,9.730035781860352,-0.4118026793003082,0.181959331035614
1683474290107131400,6.55513134765625,9.737217903137207,-0.40940847992897034,0.24420857429504395
1683474290117110500,6.565110595703125,9.847352027893066,-0.4141969084739685,0.37828385829925537
1683474290127120100,6.5751201171875,9.9000244140625,-0.42856210470199585,0.5482721924781799
1683474290137129700,6.585129638671875,9.911994934082031,-0.44771572947502136,0.6320692300796509
1683474290147109000,6.595109130859375,9.876082420349121,-0.49799394607543945,0.6129156351089478
1683474290157119000,6.605118896484375,9.84495735168457,-0.5147533416748047,0.5961562395095825
1683474290167128800,6.61512890625,9.892841339111328,-0.42377370595932007,0.689530074596405
1683474290177108000,6.62510791015625,9.926360130310059,-0.2825157940387726,0.8331822156906128
1683474290187117800,6.635117919921875,9.852140426635742,-0.2753331959247589,0.8331822156906128
1683474290197127400,6.64512744140625,9.696516990661621,-0.42616790533065796,0.7493851184844971
1683474290207106800,6.65510693359375,9.646238327026367,-0.5937620401382446,0.7972691655158997
1683474290217116400,6.665116455078125,9.706093788146973,-0.751779317855835,1.0893617868423462
1683474290227126300,6.675126220703125,9.923966407775879,-0.8667010068893433,1.381454348564148
1683474290237105700,6.685105712890625,10.244789123535156,-0.8355764150619507,1.4676456451416016
1683474290247145700,6.695145751953125,10.431536674499512,-0.6799532771110535,1.6639702320098877
1683474290257124900,6.705124755859375,10.230423927307129,-0.48602294921875,1.8626888990402222
1683474290267104300,6.715104248046875,9.919178009033203,-0.2777273952960968,1.8626888990402222
1683474290277114000,6.725114013671875,9.612719535827637,-0.09816227108240128,1.9560627937316895
1683474290287124000,6.7351240234375,9.476250648498535,-0.0071826050989329815,2.030282974243164
1683474290297133600,6.745133544921875,9.785101890563965,-0.14604631066322327,2.0685901641845703
1683474290307113000,6.755113037109375,10.268731117248535,-0.28969839215278625,2.343923568725586
1683474290317122800,6.765122802734375,10.333374977111816,-0.38067805767059326,2.454056739807129
1683474290327132400,6.77513232421875,10.132261276245117,-0.3926490843296051,2.3271639347076416
1683474290337111800,6.78511181640625,9.792284965515137,-0.40701428055763245,2.2457611560821533
1683474290347121400,6.795121337890625,9.488221168518066,-0.42377370595932007,2.2433669567108154
1683474290357131000,6.805131103515625,9.373299598693848,-0.47884035110473633,2.2649147510528564
1683474290367110400,6.8151103515625,9.493009567260742,-0.44532153010368347,2.2697031497955322
1683474290377120300,6.825120361328125,9.641449928283691,-0.3878606855869293,2.2649147510528564
1683474290387129900,6.8351298828125,9.452308654785156,-0.33758243918418884,2.0925323963165283
1683474290397109200,6.845109130859375,9.435548782348633,-0.31603461503982544,1.764526605606079
1683474290407119000,6.855119140625,9.5624418258667,-0.3423708379268646,1.4389152526855469
1683474290417128700,6.865128662109375,9.557653427124023,-0.3208230137825012,1.0654197931289673
1683474290427108000,6.875108154296875,9.593565940856934,-0.08379705995321274,0.8571242094039917
1683474290437117700,6.88511767578125,9.59596061706543,-0.2777273952960968,0.6105214357376099
1683474290447127600,6.89512744140625,9.543288230895996,-0.3423708379268646,0.49799394607543945
1683474290457106700,6.905106689453125,9.437943458557129,-0.26815059781074524,0.5482721924781799
1683474290467116500,6.915116455078125,9.373299598693848,-0.22505496442317963,0.6440402865409851
1683474290477126400,6.92512646484375,9.330204010009766,-0.20350714027881622,0.7398083209991455
1683474290487105500,6.93510546875,9.14585018157959,-0.19632454216480255,0.9481038451194763
1683474290497115400,6.945115478515625,9.02135181427002,-0.08379705995321274,1.5322890281677246
1683474290507125200,6.955125244140625,9.014169692993164,-0.4189853072166443,0.9385270476341248
1683474290517104400,6.9651044921875,8.983044624328613,-0.40940847992897034,0.5961562395095825
1683474290527114000,6.975114013671875,9.069235801696777,-0.15801730751991272,-0.4620809257030487
1683474290537123800,6.985123779296875,9.409213066101074,-0.06464344263076782,-1.525106430053711
1683474290547133400,6.995133544921875,9.703699111938477,-0.12449848651885986,-2.1308395862579346
1683474290557112800,7.00511279296875,9.964667320251465,-0.1843535304069519,-2.3511061668395996
1683474290567122700,7.015122802734375,10.18493366241455,-0.3016694188117981,-2.078166961669922
1683474290577132300,7.02513232421875,10.417171478271484,-0.42377370595932007,-1.577778935432434
1683474290587111700,7.035111572265625,10.584765434265137,-0.5291185975074768,-0.8212111592292786
1683474290597121500,7.04512158203125,10.721235275268555,-0.586579442024231,-0.304063618183136
1683474290607131400,7.05513134765625,10.556035041809082,-0.5482721924781799,-0.1388636976480484
1683474290617110500,7.065110595703125,10.29746150970459,-0.4572925269603729,-0.09816227108240128
1683474290627120000,7.0751201171875,9.99339771270752,-0.3758896589279175,0.1867477297782898
1683474290637129700,7.085129638671875,9.8784761428833,-0.19632454216480255,0.569819986820221
1683474290647109000,7.095109130859375,10.395624160766602,0.10534487664699554,0.7852981686592102
1683474290657119000,7.105118896484375,10.137049674987793,-0.019153613597154617,0.17238251864910126
1683474290667128800,7.11512890625,10.144232749938965,-0.2944868206977844,-0.3280056416988373
1683474290677108000,7.12510791015625,10.096348762512207,-0.28730419278144836,-0.7254431247711182
1683474290687117800,7.135117919921875,10.062829971313477,-0.1628057211637497,-0.9696516990661621
1683474290697127400,7.14512744140625,10.06043529510498,-0.06703764945268631,-0.9097966551780701
1683474290707106800,7.15510693359375,9.988609313964844,0.002394201699644327,-0.7469909191131592
1683474290717116400,7.165116455078125,9.773131370544434,0.14844051003456116,-0.5099649429321289
1683474290727126300,7.175126220703125,8.580819129943848,0.0694318488240242,-0.15322890877723694
1683474290737105700,7.185105712890625,8.157045364379883,0.3064578175544739,-0.0933738648891449
1683474290747115300,7.195115234375,8.736441612243652,0.9002198576927185,-0.42377370595932007
1683474290757124900,7.205124755859375,9.66539192199707,0.9385270476341248,-0.44771572947502136
1683474290767104300,7.215104248046875,10.251971244812012,0.689530074596405,0.043095629662275314
1683474290777114000,7.225114013671875,10.314221382141113,0.6703764796257019,0.14844051003456116
1683474290787124000,7.2351240234375,10.053253173828125,0.6344634294509888,-0.031124621629714966
1683474290797133600,7.245133544921875,9.797073364257812,0.45489832758903503,-0.19153612852096558
1683474290807113000,7.255113037109375,9.660603523254395,0.4141969084739685,-0.22266076505184174
1683474290817122800,7.265122802734375,9.500192642211914,0.3878606855869293,-0.27054479718208313
1683474290827132400,7.27513232421875,9.44991397857666,0.4118026793003082,-0.395043283700943
1683474290837111800,7.28511181640625,9.464279174804688,0.5602431893348694,-0.5195417404174805
1683474290847121400,7.295121337890625,9.387664794921875,0.6919242739677429,-0.5626373887062073
1683474290857131000,7.305131103515625,9.816226959228516,0.43095630407333374,-0.3423708379268646
1683474290867110400,7.3151103515625,10.070012092590332,0.33279404044151306,-0.17956513166427612
1683474290877120300,7.325120361328125,10.08198356628418,0.4908113479614258,-0.17238251864910126
1683474290887129900,7.3351298828125,10.072406768798828,0.4836287498474121,-0.07182604819536209
1683474290897109200,7.345109130859375,9.926360130310059,0.47165772318840027,0
1683474290907119000,7.355119140625,9.828198432922363,0.5171475410461426,-0.10055647045373917
1683474290917128700,7.365128662109375,9.840168952941895,0.5027823448181152,-0.27054479718208313
1683474290927108000,7.375108154296875,9.928754806518555,0.4429273009300232,-0.45489832758903503
1683474290937117700,7.38511767578125,9.940725326538086,0.40462008118629456,-0.629675030708313
1683474290947127600,7.39512744140625,9.938331604003906,0.395043283700943,-0.608127236366272
1683474290957106700,7.405106689453125,9.8784761428833,0.47884035110473633,-0.2753331959247589
1683474290967116500,7.415116455078125,9.871294021606445,0.586579442024231,0.09816227108240128
1683474290977126400,7.42512646484375,9.761159896850586,0.6560112833976746,0.22505496442317963
1683474290987105500,7.43510546875,9.605537414550781,0.6009446382522583,0.2801215946674347
1683474290996701200,7.444701171875,9.528923034667969,0.5841852426528931,0.31124621629714966
1683474291006711000,7.4547109375,9.387664794921875,0.5482721924781799,0.33518823981285095
1683474291016690200,7.464690185546875,9.244012832641602,0.5315127968788147,0.5123591423034668
1683474291026700000,7.474699951171875,9.184157371520996,0.5219359993934631,0.6440402865409851
1683474291036710000,7.4847099609375,9.337387084960938,0.5817909836769104,0.569819986820221
1683474291046719500,7.494719482421875,9.579200744628906,0.5770025849342346,0.3711012601852417
1683474291056699000,7.504698974609375,9.782708168029785,0.5602431893348694,0.17477671802043915
1683474291066708700,7.514708740234375,9.861717224121094,0.5051765441894531,0.12928688526153564
1683474291076718300,7.52471826171875,9.86650562286377,0.4884171485900879,0.26096799969673157
1683474291086697500,7.534697509765625,9.761159896850586,0.4620809257030487,0.2944868206977844
1683474291096707300,7.544707275390625,9.6989107131958,0.4596867263317108,0.33997663855552673
1683474291106717200,7.55471728515625,9.607931137084961,0.48602294921875,0.3711012601852417
1683474291116696300,7.5646962890625,9.528923034667969,0.49320554733276367,0.40222588181495667
1683474291126706200,7.5747060546875,9.516951560974121,0.5051765441894531,0.33997663855552673
1683474291136715800,7.5847158203125,9.576807022094727,0.524330198764801,0.1867477297782898
1683474291146695200,7.594695068359375,9.701305389404297,0.5363011956214905,0.035913024097681046
1683474291156705000,7.604705078125,9.78989028930664,0.5506663918495178,-0.026336219161748886
1683474291166715000,7.61471484375,9.832986831665039,0.5315127968788147,-0.0071826050989329815
1683474291176693800,7.62469384765625,9.816226959228516,0.5363011956214905,0.06464344263076782
1683474291186703600,7.63470361328125,9.806650161743164,0.5267243981361389,0.08140286058187485
1683474291196713200,7.644713134765625,9.80904483795166,0.5147533416748047,0.0694318488240242
1683474291206692600,7.654692626953125,9.86650562286377,0.47165772318840027,0.021547814831137657
1683474291216702500,7.664702392578125,9.885659217834473,0.42377370595932007,0.06703764945268631
1683474291226712300,7.67471240234375,10.038887977600098,0.3447650372982025,0.17717093229293823
1683474291236691500,7.68469140625,9.995792388916016,0.36152446269989014,0.19153612852096558
1683474291246701300,7.694701416015625,9.947908401489258,0.37828385829925537,0.2059013396501541
1683474291256711000,7.7047109375,9.9000244140625,0.38546648621559143,0.21547815203666687
1683474291266690300,7.714690185546875,9.828198432922363,0.3758896589279175,0.1628057211637497
1683474291276700000,7.724699951171875,9.715670585632324,0.3687070608139038,0.14604631066322327
1683474291286709800,7.734709716796875,9.643844604492188,0.33279404044151306,0.08858546614646912
1683474291296719400,7.74471923828125,9.62947940826416,0.2944868206977844,0.05506663769483566
1683474291306698800,7.75469873046875,9.641449928283691,0.28969839215278625,0.0694318488240242
1683474291316708600,7.76470849609375,9.684545516967773,0.272938996553421,0.07661445438861847
1683474291326718200,7.77471826171875,9.782708168029785,0.2346317619085312,0.033518824726343155
1683474291336697600,7.784697509765625,9.890447616577148,0.21787235140800476,0.035913024097681046
1683474291346707500,7.79470751953125,10.010157585144043,0.181959331035614,0.10055647045373917
1683474291356717000,7.804717041015625,10.041281700134277,0.19393034279346466,0.15322890877723694
1683474291366696200,7.8146962890625,10.017339706420898,0.21547815203666687,0.20350714027881622
1683474291376706000,7.8247060546875,9.950302124023438,0.23942017555236816,0.24181437492370605
1683474291386715600,7.834715576171875,9.837775230407715,0.2537853717803955,0.2298433631658554
1683474291396695000,7.844695068359375,9.744400978088379,0.24899697303771973,0.16998831927776337
1683474291406705000,7.854704833984375,9.694122314453125,0.2346317619085312,0.10534487664699554
1683474291416714500,7.864714599609375,9.643844604492188,0.24660277366638184,0.07900865375995636
1683474291426694000,7.87469384765625,9.555258750915527,0.272938996553421,0.2082955539226532
1683474291436703700,7.884703857421875,9.519346237182617,0.2801215946674347,0.31364041566848755
1683474291446713600,7.894713623046875,9.433155059814453,0.3423708379268646,0.3998316824436188
1683474291456692700,7.904692626953125,9.425971984863281,0.38307225704193115,0.40940847992897034
1683474291466702300,7.914702392578125,9.564835548400879,0.35434186458587646,0.3232172429561615
1683474291476712200,7.924712158203125,9.6989107131958,0.33997663855552673,0.2585737705230713
1683474291486691600,7.934691650390625,9.77791976928711,0.35913026332855225,0.17956513166427612
1683474291496701200,7.944701171875,9.871294021606445,0.3423708379268646,0.08858546614646912
1683474291506711000,7.9547109375,9.861717224121094,0.2777273952960968,0.08858546614646912
1683474291516690200,7.964690185546875,9.715670585632324,0.27054479718208313,0.2801215946674347
1683474291526700000,7.974699951171875,9.588777542114258,0.23702596127986908,0.33279404044151306
1683474291536710000,7.9847099609375,9.490615844726562,0.22744916379451752,0.17956513166427612
1683474291546719500,7.994719482421875,9.442731857299805,0.21547815203666687,-0.090979665517807
1683474291556699000,8.004698974609376,9.603142738342285,0.2825157940387726,-0.3926490843296051
1683474291566708700,8.014708740234376,9.708487510681152,0.4141969084739685,-0.3734954595565796
1683474291576718300,8.02471826171875,9.749189376831055,0.507570743560791,-0.47644615173339844
1683474291586697500,8.034697509765625,9.773131370544434,0.8954314589500427,-2.0422539710998535
1683474291596707300,8.044707275390625,9.509769439697266,0.6871358752250671,-0.7469909191131592
1683474291606717200,8.05471728515625,9.452308654785156,0.7613561153411865,0.033518824726343155
1683474291616696300,8.0646962890625,9.27034854888916,0.7589619159698486,0
1683474291626706200,8.0747060546875,8.959102630615234,0.569819986820221,-0.7924807667732239
1683474291636715800,8.0847158203125,9.260771751403809,0.3280056416988373,-0.9816226959228516
1683474291646695200,8.094695068359375,9.17697525024414,1.173158884048462,-1.53707754611969
1683474291656705000,8.104705078125,8.60236644744873,0.9433154463768005,-1.2832920551300049
1683474291666715000,8.11471484375,10.845733642578125,-0.7637503147125244,-0.7876923680305481
1683474291676693800,8.12469384765625,8.83699893951416,-0.17717093229293823,-2.0877439975738525
1683474291686703600,8.13470361328125,9.488221168518066,-0.9361328482627869,-1.7741034030914307
1683474291696713200,8.144713134765626,9.368511199951172,-0.43095630407333374,-1.3958195447921753
1683474291706692600,8.154692626953125,10.220847129821777,-1.2473790645599365,1.6903064250946045
1683474291716702500,8.164702392578125,11.207258224487305,-2.207453966140747,3.9624037742614746
1683474291726712300,8.17471240234375,11.262324333190918,-1.8267759084701538,3.0813376903533936
1683474291736691500,8.18469140625,10.433931350708008,-0.8571242094039917,0.47405192255973816
1683474291746701300,8.194701416015626,9.950302124023438,-0.2968810200691223,-1.05105459690094
1683474291756711000,8.2047109375,9.50498104095459,0.19153612852096558,-1.0103530883789062
1683474291766690300,8.214690185546875,9.32541561126709,0.5291185975074768,-0.2513911724090576
1683474291776700000,8.224699951171875,9.21288776397705,0.5530605912208557,-0.12449848651885986
1683474291786709800,8.234709716796875,8.561665534973145,-0.24899697303771973,-0.44532153010368347
1683474291796719400,8.24471923828125,10.845733642578125,-0.7206547260284424,-0.395043283700943
1683474291806698800,8.25469873046875,11.563994407653809,-0.22266076505184174,-0.9217676520347595
1683474291816708600,8.26470849609375,11.93509578704834,1.4293384552001953,0.13168109953403473
1683474291826718200,8.27471826171875,11.061211585998535,1.3742717504501343,-0.5937620401382446
1683474291836697600,8.284697509765625,9.445125579833984,1.436521053314209,-0.7733271718025208
1683474291846707500,8.29470751953125,8.875306129455566,1.6376339197158813,-0.17717093229293823
1683474291856717000,8.304717041015625,8.631096839904785,1.2210428714752197,0.727837324142456
1683474291866696200,8.3146962890625,8.978256225585938,1.173158884048462,0.8954314589500427
1683474291876706000,8.3247060546875,9.011775016784668,1.213860273361206,0.43335050344467163
1683474291886715600,8.334715576171876,10.043676376342773,1.1971008777618408,0.2801215946674347
1683474291896695000,8.344695068359375,11.15697956085205,0.9265560507774353,-0.2825157940387726
1683474291906705000,8.354704833984375,11.626243591308594,0.49320554733276367,-1.091755986213684
1683474291916714500,8.364714599609375,11.207258224487305,0.2825157940387726,-1.7262194156646729
1683474291926694000,8.37469384765625,10.888829231262207,0.3495534360408783,-1.9632453918457031
1683474291936703700,8.384703857421876,9.14345645904541,0.43095630407333374,-1.280897855758667
1683474291946713600,8.394713623046876,9.301473617553711,0.7709329724311829,0.6919242739677429
1683474291956692700,8.404692626953125,10.046070098876953,1.072602391242981,0.9552865028381348
1683474291966702300,8.414702392578125,10.295066833496094,1.2832920551300049,0.06703764945268631
1683474291976712200,8.424712158203125,10.42195987701416,1.6424223184585571,-0.6512228846549988
1683474291986691600,8.434691650390626,9.217676162719727,1.7741034030914307,-0.363918662071228
1683474291996701200,8.444701171875,8.841787338256836,1.0079588890075684,0.26575639843940735
1683474292006711000,8.4547109375,9.210494041442871,0.29209262132644653,0.5147533416748047
1683474292016690200,8.464690185546875,9.59835433959961,0.17477671802043915,0.15562310814857483
1683474292026700000,8.474699951171875,9.63187313079834,0.3495534360408783,-0.5841852426528931
1683474292036710000,8.4847099609375,9.57441234588623,0.5410895943641663,-1.0678139925003052
1683474292046719500,8.494719482421875,9.50737476348877,0.47644615173339844,-0.8786720037460327
1683474292056699000,8.504698974609376,9.576807022094727,0.45250412821769714,-0.3998316824436188
1683474292066708700,8.514708740234376,9.57441234588623,0.5099649429321289,-0.19632454216480255
1683474292076718300,8.52471826171875,9.615114212036133,0.5961562395095825,-0.24899697303771973
1683474292086697500,8.534697509765625,9.466673851013184,0.646434485912323,-0.4429273009300232
1683474292096707300,8.544707275390625,9.169792175292969,0.6105214357376099,-0.6727706789970398
1683474292106717200,8.55471728515625,9.20091724395752,0.47644615173339844,-0.8906430602073669
1683474292116696300,8.5646962890625,9.224859237670898,0.36152446269989014,-1.115697979927063
1683474292126706200,8.5747060546875,9.296685218811035,0.08619125932455063,-1.6496049165725708
1683474292136715800,8.5847158203125,9.44991397857666,0.06703764945268631,-1.3335703611373901
1683474292146695200,8.594695068359375,9.064447402954102,0.2106897532939911,-0.7781155705451965
1683474292156705000,8.604705078125,9.14345645904541,0.2801215946674347,-0.3902548849582672
1683474292166715000,8.61471484375,9.41400146484375,0.3471592366695404,-0.272938996553421
1683474292176693800,8.62469384765625,9.605537414550781,0.507570743560791,-0.3902548849582672
1683474292186703600,8.63470361328125,9.3828763961792,0.7924807667732239,-0.7326257228851318
1683474292196713200,8.644713134765626,9.119514465332031,1.015141487121582,-0.9145850539207458
1683474292206692600,8.654692626953125,9.241618156433105,0.9959878921508789,-1.1683704853057861
1683474292216702500,8.664702392578125,9.44991397857666,0.8236053586006165,-1.5490485429763794
1683474292226712300,8.67471240234375,9.5408935546875,0.5841852426528931,-1.941697597503662
1683474292236691500,8.68469140625,9.48343276977539,0.31364041566848755,-2.0207061767578125
1683474292246701600,8.69470166015625,9.3828763961792,0.18914192914962769,-1.9847931861877441
1683474292256711000,8.7047109375,9.493009567260742,0.1364694982767105,-2.0446481704711914
1683474292266690300,8.714690185546875,9.502586364746094,0.1867477297782898,-2.0446481704711914
1683474292276700000,8.724699951171875,9.461885452270508,0.27054479718208313,-2.121262788772583
1683474292286709800,8.734709716796875,9.390059471130371,0.31842881441116333,-2.2409727573394775
1683474292296719400,8.74471923828125,9.27034854888916,0.31124621629714966,-2.499546527862549
1683474292306698800,8.75469873046875,9.275136947631836,0.2298433631658554,-2.5498247146606445
1683474292316708600,8.76470849609375,8.83939266204834,0.20350714027881622,-2.190694570541382
1683474292326718200,8.77471826171875,9.069235801696777,0.768538773059845,-2.6671407222747803
1683474292336697600,8.784697509765625,9.186552047729492,1.036689281463623,-3.3039982318878174
1683474292346524000,8.79452392578125,9.239224433898926,0.6823474764823914,-3.31118106842041
1683474292356716300,8.80471630859375,9.2033109664917,0.33997663855552673,-3.3518824577331543
1683474292369507600,8.817507568359375,9.344569206237793,0.2753331959247589,-3.6176388263702393
1683474292386869500,8.834869384765625,9.184157371520996,0.4620809257030487,-3.751713991165161
1683474292397275100,8.845275146484376,9.289502143859863,0.47884035110473633,-3.8522706031799316
1683474292408633900,8.8566337890625,9.277531623840332,0.4620809257030487,-3.8714241981506348
1683474292422269000,8.87026904296875,9.093177795410156,0.49799394607543945,-3.751713991165161
1683474292432278500,8.880278564453125,9.136273384094238,0.49320554733276367,-3.7253777980804443
1683474292442288400,8.890288330078125,9.0859956741333,0.3974374830722809,-3.7038300037384033
1683474292452298200,8.90029833984375,9.114726066589355,0.2322375625371933,-3.6511576175689697
1683474292462277400,8.91027734375,9.026140213012695,0.07182604819536209,-3.670311212539673
1683474292472287200,8.920287353515626,9.014169692993164,-0.028730420395731926,-3.734954595565796
1683474292482266400,8.930266357421875,9.100360870361328,-0.08379705995321274,-4.098873138427734
1683474292492276000,8.94027587890625,9.2033109664917,0.0454898327589035,-3.6296098232269287
1683474292502285800,8.950285888671875,9.167398452758789,0.019153613597154617,-4.094084739685059
1683474292512265200,8.96026513671875,9.35654067993164,0.13407529890537262,-3.7852327823638916
1683474292522275000,8.970275146484376,9.445125579833984,0.2585737705230713,-3.469198226928711
1683474292532284700,8.98028466796875,9.100360870361328,0.16759411990642548,-3.627215623855591
1683474292542294500,8.99029443359375,9.157821655273438,0,-3.646369218826294
1683474292552273700,9.000273681640625,9.210494041442871,-0.06703764945268631,-3.8283286094665527
1683474292562283500,9.010283447265625,9.248801231384277,-0.09576806426048279,-3.6774938106536865
1683474292572293000,9.020293212890625,9.44752025604248,-0.019153613597154617,-3.337517261505127
1683474292582272500,9.0302724609375,9.41400146484375,0.035913024097681046,-3.0550012588500977
1683474292592282000,9.0402822265625,9.217676162719727,-0.040701430290937424,-3.045424461364746
1683474292602292000,9.0502919921875,9.222464561462402,-0.05506663769483566,-3.157952070236206
1683474292612301800,9.0603017578125,9.334992408752441,-0.038307227194309235,-3.339911460876465
1683474292622281000,9.070281005859375,9.411606788635254,-0.016759412363171577,-3.397372245788574
1683474292632290800,9.080290771484375,9.464279174804688,-0.08619125932455063,-3.2585084438323975
1683474292642270200,9.090270263671876,9.430760383605957,-0.19393034279346466,-3.227383852005005
1683474292652279800,9.10027978515625,9.119514465332031,-0.2753331959247589,-3.3303346633911133
1683474292662289700,9.11028955078125,9.126696586608887,-0.35673606395721436,-3.308786630630493
1683474292672268800,9.120268798828125,9.167398452758789,-0.4213795065879822,-3.2992098331451416
1683474292682278700,9.130278564453125,9.215282440185547,-0.5123591423034668,-3.313575267791748
1683474292692288500,9.14028857421875,9.239224433898926,-0.5841852426528931,-3.2609026432037354
1683474292702267600,9.150267578125,9.20091724395752,-0.5339069962501526,-3.292027235031128
1683474292712277200,9.16027734375,9.251194953918457,-0.5410895943641663,-3.3063924312591553
1683474292722287000,9.170287109375,9.220070838928223,-0.48602294921875,-3.646369218826294
1683474292732297000,9.180296875,9.153033256530762,-0.4884171485900879,-3.426102638244629
1683474292742276400,9.1902763671875,9.26795482635498,-0.4644751250743866,-3.3638534545898438
1683474292752286000,9.200285888671875,9.366117477416992,-0.4213795065879822,-3.7158010005950928
1683474292762265300,9.210265380859376,9.248801231384277,-0.4644751250743866,-3.5673606395721436
1683474292772275000,9.22027490234375,7.785943984985352,-0.7158663272857666,-4.173093795776367
1683474292782284800,9.230284912109376,5.640739440917969,-1.2401964664459229,-5.564124584197998
1683474292792294400,9.24029443359375,6.845022678375244,-1.2832920551300049,-5.094861030578613
1683474292802273800,9.250273681640625,8.889671325683594,-1.1516109704971313,-2.145204782485962
1683474292812283400,9.260283447265625,13.103466033935547,-0.706289529800415,-0.2585737705230713
1683474292822293200,9.270293212890625,13.481749534606934,-0.7709329724311829,-0.5554547905921936
1683474292832272400,9.2802724609375,10.943896293640137,-0.7134721279144287,-2.056619167327881
1683474292842282200,9.2902822265625,9.11233139038086,-0.6823474764823914,-2.8826189041137695
1683474292852292000,9.3002919921875,8.29590892791748,-0.6751648783683777,-2.80361008644104
1683474292862271500,9.310271484375,8.667010307312012,-0.6177040338516235,-2.6024973392486572
1683474292872281000,9.320281005859375,9.835380554199219,-0.6105214357376099,-2.360682964324951
1683474292882291000,9.330291015625,10.879252433776855,-0.6631938815116882,-2.0470423698425293
1683474292892300500,9.340300537109375,11.037269592285156,-0.6751648783683777,-1.8986018896102905
1683474292902279700,9.35027978515625,9.500192642211914,-0.5171475410461426,-2.0853497982025146
1683474292912289500,9.36028955078125,8.427590370178223,-0.3687070608139038,-2.4205379486083984
1683474292922269000,9.37026904296875,8.583212852478027,-0.3878606855869293,-2.492363929748535
1683474292932278500,9.380278564453125,9.313444137573242,-0.5554547905921936,-2.4420857429504395
1683474292942288400,9.390288330078125,9.545681953430176,-0.7805097699165344,-2.3750481605529785
1683474292952267800,9.400267822265626,9.385271072387695,-0.9097966551780701,-2.5498247146606445
1683474292962277400,9.41027734375,9.430760383605957,-0.9026140570640564,-2.583343744277954
1683474292972287200,9.420287353515626,9.5408935546875,-0.8834604024887085,-2.607285737991333
1683474292982266400,9.430266357421875,9.53849983215332,-0.9145850539207458,-2.5115175247192383
1683474292992276000,9.44027587890625,9.586383819580078,-0.9074024558067322,-2.516305923461914
1683474293002285800,9.450285888671875,9.59835433959961,-0.8451532125473022,-2.4468741416931152
1683474293012295700,9.460295654296875,9.682151794433594,-0.9241618514060974,-2.3080103397369385
1683474293022275000,9.470275146484376,9.720458984375,-1.0031704902648926,-2.1930887699127197
1683474293032284700,9.48028466796875,9.57441234588623,-0.9457096457481384,-2.0614075660705566
1683474293042294500,9.49029443359375,9.521739959716797,-0.8475474119186401,-1.9752163887023926
1683474293052304400,9.500304443359376,9.68933391571045,-0.8906430602073669,-1.9345149993896484
1683474293062283500,9.510283447265625,9.897629737854004,-1.0654197931289673,-1.9512743949890137
1683474293072293000,9.520293212890625,9.710882186889648,-1.1276689767837524,-2.070984363555908
1683474293082272500,9.5302724609375,9.390059471130371,-1.1300631761550903,-2.126051187515259
1683474293092282000,9.5402822265625,9.423578262329102,-1.1109095811843872,-2.0039467811584473
1683474293102292000,9.5502919921875,9.5624418258667,-1.1300631761550903,-2.051830768585205
1683474293112271400,9.560271240234375,9.670180320739746,-1.1971008777618408,-2.3080103397369385
1683474293122281000,9.570281005859375,9.682151794433594,-1.173158884048462,-2.4636335372924805
1683474293132290800,9.580290771484375,9.639056205749512,-1.139639973640442,-2.315192937850952
1683474293142270200,9.590270263671876,9.684545516967773,-1.1444283723831177,-2.070984363555908
1683474293152279800,9.60027978515625,9.569623947143555,-1.1109095811843872,-2.0661959648132324
1683474293162289700,9.61028955078125,9.533711433410645,-0.9744400978088379,-2.1140801906585693
1683474293172299300,9.62029931640625,9.569623947143555,-0.9433154463768005,-2.1571757793426514
1683474293182278700,9.630278564453125,9.50498104095459,-0.9552865028381348,-2.229001760482788
1683474293192288500,9.64028857421875,9.425971984863281,-0.993593692779541,-2.2146365642547607
1683474293202267600,9.650267578125,9.332598686218262,-0.9169792532920837,-2.2170307636260986
1683474293212277200,9.66027734375,9.370905876159668,-0.8667010068893433,-2.279279947280884
1683474293222287000,9.670287109375,9.437943458557129,-0.8978256583213806,-2.3104045391082764
1683474293232266500,9.6802666015625,9.53849983215332,-0.7829039692878723,-2.698265314102173
1683474293242276400,9.6902763671875,9.155426979064941,-0.7757213711738586,-2.561795711517334
1683474293252286000,9.700285888671875,9.737217903137207,-1.015141487121582,-1.5753847360610962
1683474293262265300,9.710265380859376,9.6989107131958,-1.1204863786697388,-1.7286136150360107
1683474293272275000,9.72027490234375,9.402029991149902,-0.8523358106613159,-2.0590133666992188
1683474293282284800,9.730284912109376,9.373299598693848,-0.6344634294509888,-2.1332337856292725
1683474293292294400,9.74029443359375,9.435548782348633,-0.586579442024231,-1.9991583824157715
1683474293302273800,9.750273681640625,9.576807022094727,-0.7230489253997803,-1.946485996246338
1683474293312283400,9.760283447265625,9.481039047241211,-0.7350199222564697,-1.8938134908676147
1683474293322293200,9.770293212890625,9.536105155944824,-0.5985504388809204,-1.987187385559082
1683474293332303000,9.78030322265625,9.708487510681152,-0.5267243981361389,-2.0805611610412598
1683474293342282200,9.7902822265625,9.775525093078613,-0.507570743560791,-2.1140801906585693
1683474293352292000,9.8002919921875,9.921571731567383,-0.5267243981361389,-2.1811177730560303
1683474293362271500,9.810271484375,10.105925559997559,-0.6440402865409851,-2.3080103397369385
1683474293372281000,9.820281005859375,10.192116737365723,-0.6488286852836609,-2.387019157409668
1683474293382291000,9.830291015625,10.24000072479248,-0.37828385829925537,-2.0015525817871094
1683474293392270000,9.84027001953125,10.45547866821289,-0.31842881441116333,-2.6623523235321045
1683474293402279700,9.85027978515625,9.897629737854004,-0.2992752194404602,-1.8555063009262085
1683474293412533500,9.860533447265626,9.655815124511719,-0.18914192914962769,-1.50355863571167
1683474293422269000,9.87026904296875,9.272743225097656,-0.004788403399288654,-1.3886369466781616
1683474293432278500,9.880278564453125,9.023746490478516,0.17238251864910126,-1.3072341680526733
1683474293442288400,9.890288330078125,9.289502143859863,0.2849099934101105,-1.2425906658172607
1683474293452298200,9.90029833984375,9.854534149169922,0.17238251864910126,-1.115697979927063
1683474293462277400,9.91027734375,10.062829971313477,0.08140286058187485,-0.9983820915222168
1683474293472287200,9.920287353515626,10.022128105163574,0.11013327538967133,-0.871489405632019
1683474293482266400,9.930266357421875,10.017339706420898,0.22266076505184174,-0.8140285611152649
1683474293492276000,9.94027587890625,10.103530883789062,0.26336219906806946,-0.7948749661445618
1683474293502285800,9.950285888671875,10.074800491333008,0.28730419278144836,-0.7015010714530945
1683474293512265200,9.96026513671875,9.823410034179688,0.38067805767059326,-0.5410895943641663
1683474293522275000,9.970275146484376,9.679757118225098,0.4620809257030487,-0.4644751250743866
1683474293532284700,9.98028466796875,9.550470352172852,0.38307225704193115,-0.3734954595565796
1683474293542294500,9.99029443359375,9.548076629638672,0.304063618183136,-0.12689268589019775
1683474293552273700,10.000273681640625,9.730035781860352,0.1867477297782898,-0.05506663769483566
1683474293562283500,10.010283447265625,9.84256362915039,0.10773907601833344,-0.12689268589019775
1683474293572293000,10.020293212890625,9.99339771270752,0.031124621629714966,0.047884032130241394
1683474293582272500,10.0302724609375,10.041281700134277,0.035913024097681046,0.2585737705230713
1683474293592282000,10.0402822265625,9.974244117736816,0.1173158809542656,0.19632454216480255
1683474293602292000,10.0502919921875,9.770736694335938,0.26336219906806946,0.2968810200691223
1683474293612301800,10.0603017578125,9.68694019317627,0.3208230137825012,0.38546648621559143
1683474293622281000,10.070281005859375,9.588777542114258,0.33997663855552673,0.5315127968788147
1683474293632290800,10.080290771484375,9.612719535827637,0.3663128614425659,0.6919242739677429
1683474293642270200,10.090270263671876,9.581595420837402,0.40222588181495667,0.8954314589500427
1683474293652279800,10.10027978515625,9.641449928283691,0.3926490843296051,1.1061211824417114
1683474293662289700,10.11028955078125,9.770736694335938,0.24660277366638184,1.158793568611145
1683474293672268800,10.120268798828125,9.971850395202637,0.047884032130241394,1.0797849893569946
1683474293682278700,10.130278564453125,10.153809547424316,-0.05985504388809204,1.2449848651885986
1683474293692288500,10.14028857421875,9.971850395202637,-0.019153613597154617,1.599326729774475
1683474293702267600,10.150267578125,9.720458984375,0.17956513166427612,1.745373010635376
1683474293712277200,10.16027734375,9.334992408752441,0.40222588181495667,1.766920804977417
1683474293722287000,10.170287109375,9.105149269104004,0.45010992884635925,1.8124107122421265
1683474293732297000,10.180296875,9.150638580322266,0.42377370595932007,1.886630892753601
1683474293742276400,10.1902763671875,9.263166427612305,0.42856210470199585,2.1787235736846924
1683474293752286000,10.200285888671875,9.433155059814453,0.3495534360408783,2.5043349266052246
1683474293762265300,10.210265380859376,9.624691009521484,0.2585737705230713,2.7030537128448486
1683474293772305700,10.2203056640625,9.75397777557373,0.20111294090747833,2.7006595134735107
1683474293782284800,10.230284912109376,9.864110946655273,0.2082955539226532,2.7748796939849854
1683474293792294400,10.24029443359375,9.770736694335938,0.2777273952960968,2.940079689025879
1683474293802273800,10.250273681640625,9.667786598205566,0.3447650372982025,3.1747114658355713
1683474293812283400,10.260283447265625,9.454702377319336,0.4884171485900879,3.272873640060425
1683474293822293200,10.270293212890625,9.117119789123535,0.5003881454467773,3.3901896476745605
1683474293832272400,10.2802724609375,9.162610054016113,0.3926490843296051,3.428496837615967
1683474293842282200,10.2902822265625,9.097966194152832,0.24899697303771973,3.4811692237854004
1683474293852292000,10.3002919921875,9.334992408752441,0.07900865375995636,3.6846764087677
1683474293862271500,10.310271484375,9.344569206237793,0.05985504388809204,3.840299606323242
1683474293872281000,10.320281005859375,9.167398452758789,-0.12210428714752197,3.8786067962646484
1683474293882291000,10.330291015625,8.995016098022461,-0.35673606395721436,4.017470359802246
1683474293892300500,10.340300537109375,8.808267593383789,-0.2825157940387726,4.1395745277404785
1683474293902279700,10.35027978515625,8.884882926940918,0.038307227194309235,4.220977783203125
1683474293912289500,10.36028955078125,8.9064302444458,0.3423708379268646,4.285621166229248
1683474293922269000,10.37026904296875,8.688557624816895,0.40940847992897034,4.3622355461120605
1683474293932278500,10.380278564453125,8.554482460021973,0.40462008118629456,4.611232280731201
1683474293942288400,10.390288330078125,8.367734909057617,0.21308395266532898,4.656722068786621
1683474293952267800,10.400267822265626,8.180987358093262,-0.028730420395731926,4.987122058868408
1683474293962277400,10.41027734375,6.852205276489258,0.021547814831137657,4.627991676330566
1683474293972287200,10.420287353515626,8.650250434875488,-0.3758896589279175,5.858611583709717
1683474293982266400,10.430266357421875,8.372523307800293,-0.2561795711517334,5.975927352905273
1683474293992276000,10.44027587890625,7.740454196929932,0.15083470940589905,5.149928092956543
1683474294002285800,10.450285888671875,8.212111473083496,0.2992752194404602,5.233725070953369
1683474294012295700,10.460295654296875,8.039729118347168,0.646434485912323,5.329493045806885
1683474294022275000,10.470275146484376,8.099584579467773,0.8236053586006165,5.281609058380127
1683474294032284700,10.48028466796875,8.075642585754395,0.5985504388809204,5.228936672210693
1683474294042294500,10.49029443359375,7.69735860824585,0.40940847992897034,5.827486991882324
1683474294052304400,10.500304443359376,7.400477409362793,0.2513911724090576,5.880159378051758
1683474294062283500,10.510283447265625,7.304709434509277,0.1149216815829277,5.837063789367676
1683474294072293000,10.520293212890625,6.979097843170166,0.06703764945268631,5.803544998168945
1683474294082272500,10.5302724609375,6.593631267547607,-0.040701430290937424,5.724536418914795
1683474294092282000,10.5402822265625,6.708553314208984,0.21308395266532898,6.270414352416992
1683474294102292000,10.5502919921875,6.737283706665039,0.2082955539226532,6.09324312210083
1683474294112271400,10.560271240234375,6.943184852600098,0.31842881441116333,6.054935932159424
1683474294122281000,10.570281005859375,7.089231014251709,0.2537853717803955,5.882553577423096
1683474294132290800,10.580290771484375,7.230489253997803,0.22026655077934265,5.975927352905273
1683474294142270200,10.590270263671876,7.314286231994629,0.2777273952960968,5.8203043937683105
1683474294152279800,10.60027978515625,7.316680431365967,0.3208230137825012,5.631162166595459
1683474294162289700,10.61028955078125,7.4316020011901855,0.3016694188117981,5.748478412628174
1683474294172299300,10.62029931640625,7.762001991271973,0.090979665517807,5.5976433753967285
1683474294182278700,10.630278564453125,8.027758598327637,-0.1412578970193863,5.497087001800537
1683474294192288500,10.64028857421875,8.279149055480957,-0.33039984107017517,5.453991413116455
1683474294202267600,10.650267578125,8.446743965148926,-0.2825157940387726,5.2911858558654785
1683474294212277200,10.66027734375,8.487444877624512,-0.19871874153614044,5.161899089813232
1683474294222287000,10.670287109375,8.564059257507324,-0.011971008032560349,5.185841083526611
1683474294232266500,10.6802666015625,8.556877136230469,0.06464344263076782,5.006275653839111
1683474294242276400,10.6902763671875,8.528146743774414,0.05267243832349777,4.982333660125732
1683474294252286000,10.700285888671875,8.540117263793945,0.011971008032560349,5.003881454467773
1683474294262265300,10.710265380859376,8.547300338745117,0.026336219161748886,4.95120906829834
1683474294272275000,10.72027490234375,8.669404029846191,-0.023942016065120697,4.994304656982422
1683474294282284800,10.730284912109376,8.769960403442383,-0.035913024097681046,4.989516258239746
1683474294292294400,10.74029443359375,8.736441612243652,0.0694318488240242,5.018246650695801
1683474294302273800,10.750273681640625,8.597578048706055,0.1412578970193863,5.104437828063965
1683474294312283400,10.760283447265625,8.42040729522705,0.17477671802043915,5.104437828063965
1683474294322293200,10.770293212890625,8.360552787780762,0.21308395266532898,5.17626428604126
1683474294332303000,10.78030322265625,8.274360656738281,0.2585737705230713,5.243301868438721
1683474294342282200,10.7902822265625,8.226476669311523,0.21308395266532898,5.252878665924072
1683474294352292000,10.8002919921875,8.111555099487305,0.1867477297782898,5.245696067810059
1683474294362271500,10.810271484375,8.04691219329834,0.1412578970193863,5.2480902671813965
1683474294372281000,10.820281005859375,8.08043098449707,0.1412578970193863,5.219359874725342
1683474294382291000,10.830291015625,8.121131896972656,0.22505496442317963,5.188235282897949
1683474294392270000,10.84027001953125,8.24084186553955,0.2513911724090576,5.140350818634033
1683474294402279700,10.85027978515625,8.312667846679688,0.23942017555236816,5.195417881011963
1683474294412289500,10.86028955078125,8.415618896484375,0.22505496442317963,5.142745018005371
1683474294422269000,10.87026904296875,8.415618896484375,0.19632454216480255,5.147533416748047
1683474294432278500,10.880278564453125,8.40843677520752,0.16519992053508759,5.147533416748047
1683474294442288400,10.890288330078125,8.415618896484375,0.1604115068912506,5.1595048904418945
1683474294452298200,10.90029833984375,8.339004516601562,0.17717093229293823,5.173870086669922
1683474294462277400,10.91027734375,8.26478385925293,0.17238251864910126,5.22175407409668
1683474294472287200,10.920287353515626,8.236053466796875,0.1149216815829277,5.212177276611328
1683474294482266400,10.930266357421875,8.185775756835938,0.08858546614646912,5.183446884155273
1683474294492276000,10.94027587890625,8.166622161865234,0.1412578970193863,5.324704647064209
1683474294502285800,10.950285888671875,7.965508937835693,0.09576806426048279,5.149928092956543
1683474294512265200,10.96026513671875,8.152256965637207,0.15562310814857483,5.03021764755249
1683474294522275000,10.970275146484376,8.362946510314941,0.2346317619085312,4.881777286529541
1683474294532284700,10.98028466796875,8.573636054992676,0.21547815203666687,4.802768707275391
1683474294542294500,10.99029443359375,8.556877136230469,0.14604631066322327,4.726154327392578
1683474294552273700,11.000273681640625,8.449137687683105,0.08379705995321274,4.6734819412231445
1683474294562283500,11.010283447265625,8.327033042907715,-0.08379705995321274,4.63517427444458
1683474294572293000,11.020293212890625,8.382100105285645,-0.14844051003456116,4.627991676330566
1683474294582272500,11.0302724609375,8.346187591552734,-0.11252748221158981,4.659116744995117
1683474294592282000,11.0402822265625,8.2312650680542,-0.043095629662275314,4.63517427444458
1683474294602292000,11.0502919921875,8.422801971435547,-0.08619125932455063,4.489128112792969
1683474294612301800,11.0603017578125,8.530540466308594,0.002394201699644327,4.165910720825195
1683474294622281000,11.070281005859375,8.38449478149414,0.181959331035614,3.9624037742614746
1683474294632290800,11.080290771484375,8.453926086425781,0.22744916379451752,3.8115692138671875
1683474294642270200,11.090270263671876,8.738836288452148,0.23702596127986908,3.6846764087677
1683474294652279800,11.10027978515625,9.08838939666748,0.10773907601833344,3.576937437057495
1683474294662289700,11.11028955078125,9.275136947631836,-0.035913024097681046,3.3925838470458984
1683474294672268800,11.120268798828125,9.370905876159668,-0.15801730751991272,3.31118106842041
1683474294682278700,11.130278564453125,9.454702377319336,-0.2849099934101105,3.28963303565979
1683474294692288500,11.14028857421875,9.41400146484375,-0.3280056416988373,3.141192674636841
1683474294702267600,11.150267578125,9.445125579833984,-0.2561795711517334,3.002328872680664
1683474294712277200,11.16027734375,9.344569206237793,-0.11013327538967133,2.7533318996429443
1683474294722287000,11.170287109375,9.215282440185547,0.15801730751991272,2.518700122833252
1683474294732297000,11.180296875,9.612719535827637,0.4141969084739685,2.3558945655822754
1683474294742276400,11.1902763671875,9.75637149810791,0.5003881454467773,2.1332337856292725
1683474294752286000,11.200285888671875,9.821015357971191,0.43095630407333374,1.821987509727478
1683474294762265300,11.210265380859376,10.295066833496094,0.22266076505184174,1.7357962131500244
1683474294772275000,11.22027490234375,10.503362655639648,0.11252748221158981,1.721431016921997
1683474294782284800,11.230284912109376,10.453084945678711,0.07422025501728058,1.6831238269805908
1683474294792294400,11.24029443359375,10.27591323852539,0.035913024097681046,1.702277421951294
1683474294802273800,11.250273681640625,9.986215591430664,-0.021547814831137657,1.6352397203445435
1683474294812283400,11.260283447265625,9.619902610778809,0.047884032130241394,1.5969325304031372
1683474294822293200,11.270293212890625,9.751583099365234,0.26575639843940735,1.5849615335464478
1683474294832272400,11.2802724609375,9.476250648498535,0.6009446382522583,1.4484920501708984
1683474294842282200,11.2902822265625,8.96149730682373,0.8810662031173706,1.3048399686813354
1683474294852292000,11.3002919921875,9.299078941345215,0.8930372595787048,1.292868971824646
1683474294862271500,11.310271484375,9.734824180603027,0.7445967197418213,1.2976573705673218
1683474294872281000,11.320281005859375,10.000580787658691,0.5793967843055725,1.2425906658172607
1683474294882291000,11.330291015625,9.93354320526123,0.5363011956214905,1.1420341730117798
1683474294892300500,11.340300537109375,10.019734382629395,0.524330198764801,1.0797849893569946
1683474294902279700,11.35027978515625,10.055646896362305,0.6033388376235962,1.0295066833496094
1683474294912289500,11.36028955078125,10.000580787658691,0.727837324142456,0.9361328482627869
1683474294922269000,11.37026904296875,9.952696800231934,0.871489405632019,0.7829039692878723
1683474294932278500,11.380278564453125,9.667786598205566,1.1540051698684692,0.6392518281936646
1683474294942288400,11.390288330078125,9.720458984375,1.2210428714752197,0.5386953949928284
1683474294952267800,11.400267822265626,9.974244117736816,1.094150185585022,0.47644615173339844
1683474294962277400,11.41027734375,9.828198432922363,1.0462661981582642,0.5099649429321289
1683474294972287200,11.420287353515626,9.373299598693848,1.1252747774124146,0.48602294921875
1683474294982266400,11.430266357421875,9.469067573547363,1.2545616626739502,0.4405331015586853
1683474294992276000,11.44027587890625,9.390059471130371,1.3120225667953491,0.3471592366695404
1683474295002285800,11.450285888671875,9.354146003723145,1.3838485479354858,0.3208230137825012
1683474295012295700,11.460295654296875,9.320627212524414,1.4484920501708984,0.3447650372982025
1683474295022274800,11.47027490234375,9.224859237670898,1.599326729774475,0.30885201692581177
1683474295032284700,11.48028466796875,9.306262016296387,1.7310078144073486,0.17238251864910126
1683474295042294500,11.49029443359375,9.375694274902344,1.8171991109848022,0.026336219161748886
1683474295052304400,11.500304443359376,9.284713745117188,1.8579005002975464,-0.05985504388809204
1683474295062283500,11.510283447265625,8.959102630615234,1.7693150043487549,-0.23942017555236816
1683474295072293400,11.52029345703125,9.004592895507812,1.6519991159439087,-0.2513911724090576
1683474295082272500,11.5302724609375,9.157821655273438,1.647210717201233,-0.2777273952960968
1683474295092282000,11.5402822265625,9.078812599182129,1.6328455209732056,-0.272938996553421
1683474295102292000,11.5502919921875,8.911218643188477,1.556231141090393,-0.3016694188117981
1683474295112271400,11.560271240234375,8.942343711853027,1.525106430053711,-0.22026655077934265
1683474295122281000,11.570281005859375,8.983044624328613,1.5945383310317993,-0.21787235140800476
1683474295132290800,11.580290771484375,8.844181060791016,1.5083470344543457,-0.26575639843940735
1683474295142270200,11.590270263671876,8.916007041931152,1.3431471586227417,-0.26575639843940735
1683474295152279800,11.60027978515625,9.239224433898926,1.048660397529602,-0.395043283700943
1683474295162289700,11.61028955078125,9.349357604980469,0.9217676520347595,-0.6607996821403503
1683474295172299300,11.62029931640625,9.603142738342285,0.9433154463768005,-0.7230489253997803
1683474295182278700,11.630278564453125,9.885659217834473,0.9816226959228516,-0.9026140570640564
1683474295192288500,11.64028857421875,9.962273597717285,1.1420341730117798,-0.9576807022094727
1683474295202267600,11.650267578125,9.971850395202637,1.2234370708465576,-1.0079588890075684
1683474295212277200,11.66027734375,10.14902114868164,1.1779472827911377,-1.0127472877502441
1683474295222287000,11.670287109375,10.050858497619629,1.1348515748977661,-0.9624691009521484
1683474295232266500,11.6802666015625,9.770736694335938,1.072602391242981,-0.9744400978088379
1683474295242276000,11.690276123046875,9.560047149658203,0.9840168952941895,-0.871489405632019
1683474295252286000,11.700285888671875,9.490615844726562,0.8379706144332886,-0.8164227604866028
1683474295262265300,11.710265380859376,9.476250648498535,0.6799532771110535,-0.7972691655158997
1683474295272275200,11.720275146484376,9.454702377319336,0.5482721924781799,-0.811634361743927
1683474295282284800,11.730284912109376,9.5408935546875,0.5219359993934631,-0.8834604024887085
1683474295292294400,11.74029443359375,9.57441234588623,0.5770025849342346,-0.9624691009521484
1683474295302273500,11.7502734375,9.66299819946289,0.6224924325942993,-0.9696516990661621
1683474295312283400,11.760283447265625,9.888052940368652,0.6224924325942993,-0.9840168952941895
1683474295322293200,11.770293212890625,10.010157585144043,0.5793967843055725,-1.0127472877502441
1683474295332303000,11.78030322265625,10.038887977600098,0.5506663918495178,-1.0582371950149536
1683474295342282200,11.7902822265625,10.062829971313477,0.4644751250743866,-1.0127472877502441
1683474295352292000,11.8002919921875,10.153809547424316,0.3447650372982025,-0.9911994934082031
1683474295362271500,11.810271484375,10.26394271850586,0.28730419278144836,-1.0462661981582642
1683474295372281000,11.820281005859375,10.309432983398438,-0.21308395266532898,-1.113303780555725
1683474295382291000,11.830291015625,10.163386344909668,-0.27054479718208313,-0.9002198576927185
1683474295392270000,11.84027001953125,10.02691650390625,-0.26575639843940735,-0.9959878921508789
1683474295408945700,11.856945556640625,9.873687744140625,-0.15801730751991272,-1.0462661981582642
1683474295423062300,11.871062255859375,9.713275909423828,-0.1364694982767105,-0.9289502501487732
1683474295433072000,11.881072021484375,9.744400978088379,-0.2082955539226532,-0.8667010068893433
1683474295443081700,11.891081787109375,9.854534149169922,-0.3902548849582672,-0.8092401623725891
1683474295453061000,11.90106103515625,9.959878921508789,-0.6392518281936646,-0.7230489253997803
1683474295463071000,11.911071044921876,10.041281700134277,-0.7661445140838623,-0.6440402865409851
1683474295473080600,11.92108056640625,10.105925559997559,-0.8738836050033569,-0.5793967843055725
1683474295483060000,11.93106005859375,10.050858497619629,-0.8906430602073669,-0.5578489899635315
1683474295493069600,11.941069580078125,9.919178009033203,-0.8355764150619507,-0.524330198764801
1683474295503079400,11.951079345703125,9.821015357971191,-0.751779317855835,-0.45250412821769714
1683474295513058600,11.96105859375,9.835380554199219,-0.706289529800415,-0.3447650372982025
1683474295523068400,11.971068359375,9.914389610290527,-0.7565677165985107,-0.20350714027881622
1683474295533078300,11.981078369140626,9.967061996459961,-0.8978256583213806,-0.0933738648891449
1683474295543057700,11.9910576171875,9.976638793945312,-1.0271124839782715,0.002394201699644327
1683474295553067300,12.0010673828125,10.007762908935547,-1.2330138683319092,0.181959331035614
1683474295563077000,12.0110771484375,9.916783332824707,-1.3862427473068237,0.28730419278144836
1683474295573056000,12.021055908203126,9.892841339111328,-1.479616641998291,0.3519476354122162
1683474295583065900,12.03106591796875,9.981427192687988,-1.501164436340332,0.4405331015586853
1683474295593075700,12.04107568359375,10.141838073730469,-1.45806884765625,0.5746083855628967
1683474295603055000,12.05105517578125,10.295066833496094,-1.436521053314209,0.5961562395095825
1683474295613064700,12.061064697265625,10.307038307189941,-1.3910311460494995,0.6727706789970398
1683474295623074600,12.071074462890625,10.103530883789062,-1.3886369466781616,0.7948749661445618
1683474295633054000,12.081053955078126,10.007762908935547,-1.3215993642807007,0.8858546018600464
1683474295643063600,12.0910634765625,10.053253173828125,-1.3120225667953491,0.9313444495201111
1683474295653073200,12.1010732421875,10.096348762512207,-1.3503297567367554,0.9313444495201111
1683474295663052500,12.111052490234375,10.160991668701172,-1.4700398445129395,1.0247182846069336
1683474295673062100,12.121062255859375,10.299856185913086,-1.6112977266311646,1.115697979927063
1683474295683072000,12.131072021484375,10.390835762023926,-1.6950948238372803,1.2066776752471924
1683474295693081900,12.141081787109375,10.484209060668945,-1.7286136150360107,1.2234370708465576
1683474295703061000,12.15106103515625,10.575188636779785,-1.6304513216018677,1.237802267074585
1683474295713070800,12.16107080078125,10.42195987701416,-1.4532804489135742,1.2856862545013428
1683474295723080700,12.171080810546876,10.189722061157227,-1.3527239561080933,1.3335703611373901
1683474295733059800,12.181059814453125,10.036493301391602,-1.3215993642807007,1.4413094520568848
1683474295743069700,12.191069580078125,9.919178009033203,-1.3192051649093628,1.5897499322891235
1683474295753079300,12.201079345703125,9.837775230407715,-1.2737152576446533,1.7381904125213623
1683474295763058700,12.21105859375,9.78989028930664,-1.2425906658172607,1.8483237028121948
1683474295773068300,12.221068359375,9.763554573059082,-1.2497732639312744,1.9704279899597168
1683474295783078100,12.231078125,9.708487510681152,-1.2952631711959839,2.0398597717285156
1683474295793057300,12.241057373046875,9.581595420837402,-1.3024457693099976,2.140416383743286
1683474295803067100,12.251067138671875,9.476250648498535,-1.2545616626739502,2.164358377456665
1683474295813077000,12.261076904296875,9.390059471130371,-1.1468225717544556,2.183511972427368
1683474295823056400,12.271056396484376,9.368511199951172,-1.01753568649292,2.2673089504241943
1683474295833066000,12.28106591796875,9.332598686218262,-0.9002198576927185,2.3247697353363037
1683474295843075800,12.291075927734376,9.346963882446289,-0.8188169598579407,2.3798365592956543
1683474295853055000,12.301054931640625,9.397241592407227,-0.7374141216278076,2.425326347351074
1683474295863064600,12.311064697265625,9.421183586120605,-0.6823474764823914,2.477998733520508
1683474295873074400,12.321074462890625,9.387664794921875,-0.7661445140838623,2.535459518432617
1683474295883053800,12.3310537109375,9.421183586120605,-0.7829039692878723,2.559401512145996
1683474295893063400,12.3410634765625,9.44991397857666,-0.751779317855835,2.612074136734009
1683474295903073300,12.3510732421875,9.502586364746094,-0.6727706789970398,2.6192567348480225
1683474295913052700,12.361052734375,9.461885452270508,-0.5506663918495178,2.669534921646118
1683474295923062300,12.371062255859375,9.557653427124023,-0.4836287498474121,2.7006595134735107
1683474295933072100,12.381072021484375,9.607931137084961,-0.3758896589279175,2.7078421115875244
1683474295943081700,12.391081787109375,9.5408935546875,-0.20350714027881622,2.719813108444214
1683474295953061000,12.40106103515625,9.435548782348633,-0.17238251864910126,2.7940332889556885
1683474295963071000,12.411071044921876,9.44991397857666,-0.13168109953403473,2.868253707885742
1683474295973080600,12.42108056640625,9.423578262329102,-0.05985504388809204,2.9975404739379883
1683474295983060000,12.43106005859375,9.39245319366455,0.028730420395731926,3.064578056335449
1683474295993069600,12.441069580078125,9.296685218811035,0.1843535304069519,3.0885202884674072
1683474296003079400,12.451079345703125,9.157821655273438,0.3280056416988373,3.1914708614349365
1683474296013058600,12.46105859375,9.057265281677246,0.363918662071228,3.1914708614349365
1683474296023068400,12.471068359375,9.066842079162598,0.43335050344467163,3.2632968425750732
1683474296033078300,12.481078369140626,9.006986618041992,0.4812345504760742,3.265691041946411
1683474296043057700,12.4910576171875,8.98543930053711,0.5171475410461426,3.265691041946411
1683474296053067300,12.5010673828125,9.01895809173584,0.545877993106842,3.3255462646484375
1683474296063077000,12.5110771484375,9.23443603515625,0.5626373887062073,3.404554843902588
1683474296073056000,12.521055908203126,9.301473617553711,0.6607996821403503,3.4620156288146973
1683474296083065900,12.53106591796875,9.114726066589355,0.7948749661445618,3.469198226928711
1683474296093075700,12.54107568359375,8.844181060791016,0.9217676520347595,3.466804027557373
1683474296103055000,12.55105517578125,8.65743350982666,1.036689281463623,3.4955344200134277
1683474296113064700,12.561064697265625,8.595184326171875,1.1444283723831177,3.512293815612793
1683474296123074600,12.571074462890625,8.537723541259766,1.235408067703247,3.5458126068115234
1683474296133054000,12.581053955078126,8.492233276367188,1.2713210582733154,3.5458126068115234
1683474296143063600,12.5910634765625,8.47547435760498,1.2856862545013428,3.56017804145813
1683474296153073200,12.6010732421875,8.604761123657227,1.3431471586227417,3.4979286193847656
1683474296163052500,12.611052490234375,8.772355079650879,1.3766659498214722,3.4380736351013184
1683474296173062100,12.621062255859375,8.918401718139648,1.4317326545715332,3.3494882583618164
1683474296183072000,12.631072021484375,9.050082206726074,1.53707754611969,3.2609026432037354
1683474296193081900,12.641081787109375,9.040505409240723,1.6400281190872192,3.2178070545196533
1683474296203061000,12.65106103515625,8.908824920654297,1.6903064250946045,3.177105665206909
1683474296213101300,12.661101318359375,8.69334602355957,1.8195933103561401,3.1220390796661377
1683474296223080700,12.671080810546876,8.621520042419434,1.8100165128707886,3.0550012588500977
1683474296233059800,12.681059814453125,8.60236644744873,1.8315643072128296,3.002328872680664
1683474296243069700,12.691069580078125,8.611943244934082,1.8531121015548706,3.023876667022705
1683474296253079300,12.701079345703125,8.549694061279297,1.886630892753601,3.0861260890960693
1683474296263058700,12.71105859375,8.528146743774414,1.941697597503662,3.0621838569641113
1683474296273068300,12.721068359375,8.549694061279297,2.0231003761291504,3.0095114707946777
1683474296283078100,12.731078125,8.899248123168945,2.121262788772583,2.96162748336792
1683474296293057300,12.741057373046875,9.133879661560059,2.229001760482788,2.9041666984558105
1683474296303067100,12.751067138671875,9.227252960205078,2.233790159225464,2.7748796939849854
1683474296313077000,12.761076904296875,9.215282440185547,2.346317768096924,2.63362193107605
1683474296323056400,12.771056396484376,8.920795440673828,2.427720546722412,2.583343744277954
1683474296333066000,12.78106591796875,8.461109161376953,2.516305923461914,2.449268341064453
1683474296343075800,12.791075927734376,8.449137687683105,2.5689783096313477,2.3487119674682617
1683474296353055000,12.801054931640625,8.736441612243652,2.604891538619995,2.31758713722229
1683474296363064600,12.811064697265625,8.83939266204834,2.4827871322631836,2.3511061668395996
1683474296373074400,12.821074462890625,8.81784439086914,2.33913516998291,2.343923568725586
1683474296383053800,12.8310537109375,9.05247688293457,2.1045033931732178,2.2361843585968018
1683474296393063400,12.8410634765625,9.057265281677246,2.1140801906585693,2.1140801906585693
1683474296403073300,12.8510732421875,8.911218643188477,2.296039342880249,1.987187385559082
1683474296413052700,12.861052734375,8.44434928894043,2.5067291259765625,1.8938134908676147
1683474296423062300,12.871062255859375,8.307879447937012,2.516305923461914,1.7501614093780518
1683474296433072000,12.881072021484375,8.279149055480957,2.6455929279327393,1.6615760326385498
1683474296443081700,12.891081787109375,8.47547435760498,2.691082715988159,1.5418659448623657
1683474296453061000,12.90106103515625,8.635885238647461,2.43011474609375,1.2952631711959839
1683474296463071000,12.911071044921876,8.78193187713623,2.0805611610412598,1.2210428714752197
