time,seconds_elapsed,z,y,x
1683385914206201900,0.150201904296875,-0.01771509274840355,0.06475171446800232,-0.14966198801994324
1683385914216778200,0.1607783203125,-0.01771509274840355,0.06475171446800232,-0.14966198801994324
1683385914226771500,0.170771484375,-0.01771509274840355,0.06475171446800232,-0.14966198801994324
1683385914236798000,0.1807978515625,-0.01771509274840355,0.06475171446800232,-0.14966198801994324
1683385914246760400,0.190760498046875,0.02321287989616394,0.02015855349600315,-0.001832595793530345
1683385914256787000,0.200786865234375,0.021991148591041565,0.021991148591041565,-0.0012217304902151227
1683385914266780000,0.21077978515625,0.021380282938480377,0.021380282938480377,-0.003054326167330146
1683385914276776000,0.22077587890625,0.02076941914856434,0.021991148591041565,-0.001832595793530345
1683385914286769000,0.230768798828125,0.022602014243602753,0.021380282938480377,-0.0024434609804302454
1683385914296800800,0.24080078125,0.02382374368607998,0.022602014243602753,-0.003054326167330146
1683385914306758000,0.2507578125,0.022602014243602753,0.021380282938480377,-0.0024434609804302454
1683385914316789800,0.260789794921875,0.02321287989616394,0.02076941914856434,-0.001832595793530345
1683385914326777600,0.270777587890625,0.021991148591041565,0.021991148591041565,-0.001832595793530345
1683385914336778800,0.28077880859375,0.022602014243602753,0.021380282938480377,-0.0024434609804302454
1683385914346766600,0.2907666015625,0.022602014243602753,0.02076941914856434,-0.0024434609804302454
1683385914356798500,0.300798583984375,0.022602014243602753,0.021380282938480377,-0.0024434609804302454
1683385914366755300,0.31075537109375,0.022602014243602753,0.02076941914856434,-0.0024434609804302454
1683385914376787500,0.320787353515625,0.02321287989616394,0.021380282938480377,-0.0024434609804302454
1683385914386775000,0.330775146484375,0.02321287989616394,0.02015855349600315,-0.00366519158706069
1683385914396776400,0.3407763671875,0.02321287989616394,0.019547687843441963,-0.003054326167330146
1683385914406764000,0.350763916015625,0.02321287989616394,0.021380282938480377,-0.001832595793530345
1683385914416796000,0.3607958984375,0.02321287989616394,0.021380282938480377,-0.0024434609804302454
1683385914426753000,0.3707529296875,0.02321287989616394,0.02321287989616394,-0.001832595793530345
1683385914436784600,0.38078466796875,0.02321287989616394,0.021380282938480377,-0.003054326167330146
1683385914446772700,0.390772705078125,0.02321287989616394,0.021380282938480377,-0.003054326167330146
1683385914456774000,0.40077392578125,0.021991148591041565,0.021991148591041565,-0.0012217304902151227
1683385914466761500,0.410761474609375,0.021991148591041565,0.021380282938480377,-0.0012217304902151227
1683385914476793600,0.420793701171875,0.022602014243602753,0.021991148591041565,-0.001832595793530345
1683385914486781200,0.43078125,0.02382374368607998,0.02076941914856434,-0.0012217304902151227
1683385914496782300,0.4407822265625,0.022602014243602753,0.021380282938480377,-0.001832595793530345
1683385914506770400,0.4507705078125,0.021991148591041565,0.02015855349600315,-0.0024434609804302454
1683385914516802000,0.460802001953125,0.021991148591041565,0.021380282938480377,-0.001832595793530345
1683385914526759400,0.470759521484375,0.022602014243602753,0.021380282938480377,-0.001832595793530345
1683385914536790800,0.480790771484375,0.021991148591041565,0.02076941914856434,-0.0006108652451075613
1683385914546778600,0.490778564453125,0.02321287989616394,0.021991148591041565,-0.001832595793530345
1683385914556780000,0.500780029296875,0.02321287989616394,0.021991148591041565,-0.003054326167330146
1683385914566767600,0.510767578125,0.022602014243602753,0.019547687843441963,-0.001832595793530345
1683385914576799500,0.520799560546875,0.022602014243602753,0.02076941914856434,-0.0024434609804302454
1683385914586756900,0.5307568359375,0.02382374368607998,0.022602014243602753,-0.001832595793530345
1683385914596788700,0.540788818359375,0.022602014243602753,0.021380282938480377,-0.0012217304902151227
1683385914606776300,0.5507763671875,0.022602014243602753,0.02015855349600315,0.0006108652451075613
1683385914616777500,0.560777587890625,0.02382374368607998,0.02015855349600315,-0.0024434609804302454
1683385914626765300,0.570765380859375,0.022602014243602753,0.021380282938480377,-0.0024434609804302454
1683385914636797000,0.580796875,0.022602014243602753,0.02076941914856434,-0.003054326167330146
1683385914646754300,0.59075439453125,0.022602014243602753,0.021380282938480377,-0.001832595793530345
1683385914656786400,0.600786376953125,0.022602014243602753,0.02321287989616394,-0.001832595793530345
1683385914666773800,0.610773681640625,0.02321287989616394,0.02015855349600315,-0.0024434609804302454
1683385914676775400,0.620775390625,0.02382374368607998,0.021991148591041565,-0.0024434609804302454
1683385914686763000,0.630762939453125,0.021991148591041565,0.021380282938480377,-0.0024434609804302454
1683385914696794600,0.640794677734375,0.021991148591041565,0.021380282938480377,-0.0024434609804302454
1683385914706752000,0.650751953125,0.022602014243602753,0.02076941914856434,-0.0024434609804302454
1683385914716783600,0.66078369140625,0.022602014243602753,0.021991148591041565,-0.001832595793530345
1683385914726771500,0.670771484375,0.021991148591041565,0.021380282938480377,-0.0024434609804302454
1683385914736803300,0.68080322265625,0.022602014243602753,0.021380282938480377,-0.0024434609804302454
1683385914746760400,0.690760498046875,0.021380282938480377,0.022602014243602753,-0.001832595793530345
1683385914756792300,0.700792236328125,0.02321287989616394,0.021991148591041565,-0.003054326167330146
1683385914766780000,0.71077978515625,0.02321287989616394,0.02015855349600315,-0.001832595793530345
1683385914776781600,0.720781494140625,0.022602014243602753,0.021380282938480377,-0.0024434609804302454
1683385914786769200,0.73076904296875,0.021991148591041565,0.021380282938480377,-0.0012217304902151227
1683385914796801000,0.740801025390625,0.02321287989616394,0.021991148591041565,-0.0024434609804302454
1683385914806758100,0.750758056640625,0.021991148591041565,0.021380282938480377,-0.001832595793530345
1683385914816789800,0.760789794921875,0.022602014243602753,0.021991148591041565,-0.001832595793530345
1683385914826777900,0.77077783203125,0.022602014243602753,0.021380282938480377,-0.0024434609804302454
1683385914836779000,0.780779052734375,0.021991148591041565,0.021380282938480377,-0.0024434609804302454
1683385914846766800,0.790766845703125,0.022602014243602753,0.02321287989616394,-0.0012217304902151227
1683385914856792300,0.800792236328125,0.022602014243602753,0.024434609338641167,-0.003054326167330146
1683385914866754800,0.8107548828125,0.022602014243602753,0.02321287989616394,-0.001832595793530345
1683385914876786400,0.820786376953125,0.024434609338641167,0.02015855349600315,-0.0012217304902151227
1683385914886774300,0.830774169921875,0.022602014243602753,0.019547687843441963,-0.001832595793530345
1683385914896775400,0.840775390625,0.02321287989616394,0.021991148591041565,-0.003054326167330146
1683385914906763300,0.85076318359375,0.02321287989616394,0.02076941914856434,-0.0024434609804302454
1683385914916795100,0.860795166015625,0.021991148591041565,0.02076941914856434,-0.0006108652451075613
1683385914926752500,0.87075244140625,0.022602014243602753,0.02015855349600315,-0.001832595793530345
1683385914936784400,0.880784423828125,0.021991148591041565,0.021380282938480377,-0.001832595793530345
1683385914946772000,0.89077197265625,0.02321287989616394,0.021991148591041565,-0.0012217304902151227
1683385914956774000,0.90077392578125,0.021991148591041565,0.02076941914856434,-0.001832595793530345
1683385914966761500,0.910761474609375,0.02321287989616394,0.021991148591041565,-0.0024434609804302454
1683385914976793600,0.920793701171875,0.022602014243602753,0.021991148591041565,-0.003054326167330146
1683385914986781200,0.93078125,0.02321287989616394,0.021380282938480377,-0.0006108652451075613
1683385914996782300,0.9407822265625,0.02321287989616394,0.021380282938480377,-0.0024434609804302454
1683385915006770200,0.950770263671875,0.021991148591041565,0.022602014243602753,0
1683385915016801800,0.9608017578125,0.02321287989616394,0.02382374368607998,-0.001832595793530345
1683385915026759200,0.97075927734375,0.02321287989616394,0.02076941914856434,-0.0024434609804302454
1683385915036791000,0.980791015625,0.022602014243602753,0.021380282938480377,-0.0006108652451075613
1683385915046779000,0.99077880859375,0.022602014243602753,0.022602014243602753,-0.0012217304902151227
1683385915056779800,1.00077978515625,0.021991148591041565,0.021991148591041565,-0.0012217304902151227
1683385915066767600,1.010767578125,0.022602014243602753,0.022602014243602753,-0.001832595793530345
1683385915076799200,1.02079931640625,0.022602014243602753,0.021380282938480377,-0.0012217304902151227
1683385915086756900,1.0307568359375,0.02321287989616394,0.021380282938480377,-0.001832595793530345
1683385915096789000,1.0407890625,0.022602014243602753,0.021380282938480377,-0.0012217304902151227
1683385915106776300,1.0507763671875,0.022602014243602753,0.021380282938480377,-0.0012217304902151227
1683385915116777500,1.060777587890625,0.022602014243602753,0.02076941914856434,-0.001832595793530345
1683385915126765300,1.070765380859375,0.02382374368607998,0.021380282938480377,-0.003054326167330146
1683385915136797200,1.080797119140625,0.022602014243602753,0.021380282938480377,-0.0024434609804302454
1683385915146754300,1.09075439453125,0.022602014243602753,0.021991148591041565,-0.001832595793530345
1683385915156786200,1.1007861328125,0.022602014243602753,0.022602014243602753,-0.0012217304902151227
1683385915166773800,1.110773681640625,0.02321287989616394,0.021380282938480377,-0.0012217304902151227
1683385915176775200,1.120775146484375,0.021991148591041565,0.021380282938480377,-0.003054326167330146
1683385915186763000,1.130762939453125,0.02321287989616394,0.02015855349600315,-0.001832595793530345
1683385915196794600,1.140794677734375,0.022602014243602753,0.019547687843441963,-0.00366519158706069
1683385915206751700,1.150751708984375,0.022602014243602753,0.02076941914856434,-0.001832595793530345
1683385915216783600,1.16078369140625,0.022602014243602753,0.02015855349600315,-0.001832595793530345
1683385915226771500,1.170771484375,0.02382374368607998,0.02015855349600315,-0.001832595793530345
1683385915236803000,1.180802978515625,0.021991148591041565,0.02015855349600315,-0.0024434609804302454
1683385915246760400,1.190760498046875,0.022602014243602753,0.018325956538319588,-0.00366519158706069
1683385915256792300,1.200792236328125,0.022602014243602753,0.013439035043120384,-0.006719517521560192
1683385915266780000,1.21077978515625,0.021380282938480377,0.009773843921720982,-0.00733038317412138
1683385915276781300,1.22078125,0.021991148591041565,0.006719517521560192,-0.009162978269159794
1683385915286769000,1.230768798828125,0.021991148591041565,0.00366519158706069,-0.009773843921720982
1683385915296800800,1.24080078125,0.021991148591041565,0.00427605677396059,-0.009162978269159794
1683385915306758000,1.2507578125,0.021380282938480377,0.006719517521560192,-0.007941247895359993
1683385915316789800,1.260789794921875,0.022602014243602753,0.00855211354792118,-0.00855211354792118
1683385915326777600,1.270777587890625,0.021991148591041565,0.00855211354792118,-0.006719517521560192
1683385915336778800,1.28077880859375,0.021991148591041565,0.004886921960860491,-0.004886921960860491
1683385915346766600,1.2907666015625,0.02321287989616394,0.0024434609804302454,-0.006108652334660292
1683385915356798500,1.300798583984375,0.024434609338641167,-0.003054326167330146,-0.00733038317412138
1683385915366755300,1.31075537109375,0.02626720629632473,-0.018325956538319588,-0.00855211354792118
1683385915376787500,1.320787353515625,0.09896016865968704,-0.04703662544488907,-0.01466076634824276
1683385915386775000,1.330775146484375,0.16065755486488342,-0.09224065393209457,-0.01771509274840355
1683385915396776200,1.340776123046875,0.0910189226269722,-0.12095131725072861,-0.018325956538319588
1683385915406764300,1.350764404296875,0.036041051149368286,-0.14049901068210602,-0.019547687843441963
1683385915416795400,1.36079541015625,0.027488935738801956,-0.17531833052635193,-0.02015855349600315
1683385915426753000,1.3707529296875,0.016493361443281174,-0.17409659922122955,-0.0024434609804302454
1683385915436784600,1.38078466796875,0.016493361443281174,-0.17776179313659668,-0.0024434609804302454
1683385915446772500,1.3907724609375,0.016493361443281174,-0.19975294172763824,-0.00366519158706069
1683385915456773600,1.400773681640625,0.015882495790719986,-0.22602014243602753,-0.00366519158706069
1683385915466761500,1.410761474609375,0.015882495790719986,-0.22540926933288574,-0.00427605677396059
1683385915476793000,1.42079296875,0.016493361443281174,-0.19425514340400696,-0.003054326167330146
1683385915486781200,1.43078125,0.019547687843441963,-0.1264491081237793,-0.003054326167330146
1683385915496782000,1.440781982421875,0.018325956538319588,-0.13011430203914642,-0.003054326167330146
1683385915506770200,1.450770263671875,0.01466076634824276,-0.2626720666885376,-0.005497787147760391
1683385915516801500,1.460801513671875,0.00733038317412138,-0.5467243790626526,-0.005497787147760391
1683385915526759400,1.470759521484375,0.00855211354792118,-0.9004153609275818,-0.006108652334660292
1683385915536790800,1.480790771484375,0.04398229718208313,-1.2822061777114868,-0.0024434609804302454
1683385915546779000,1.49077880859375,0.0861319974064827,-1.5741997957229614,0.0012217304902151227
1683385915556779500,1.500779541015625,0.1258382350206375,-1.7702875137329102,0.004886921960860491
1683385915566767600,1.510767578125,0.1362229436635971,-1.9199494123458862,0.010995574295520782
1683385915576797700,1.520797607421875,0.09040805697441101,-2.032959461212158,0.01160643994808197
1683385915586756900,1.5307568359375,0.022602014243602753,-2.0928242206573486,0.007941247895359993
1683385915596788200,1.540788330078125,0.039706241339445114,-2.0977113246917725,0.010995574295520782
1683385915606776300,1.5507763671875,0.09285151958465576,-2.1172590255737305,0.02076941914856434
1683385915616776000,1.56077587890625,0.07452555745840073,-2.090380907058716,0.018325956538319588
1683385915626765300,1.570765380859375,0.0659734457731247,-2.1154263019561768,0.01710422709584236
1683385915636820000,1.580820068359375,0.07757988572120667,-2.1618521213531494,0.018325956538319588
1683385915646754300,1.59075439453125,0.07819075137376785,-2.135584831237793,-0.01038470957428217
1683385915656784400,1.600784423828125,0.0861319974064827,-2.0256290435791016,-0.07147123664617538
1683385915666773800,1.610773681640625,0.13316862285137177,-1.9034560918807983,-0.08307767659425735
1683385915676773600,1.620773681640625,0.17470745742321014,-1.730581283569336,-0.06475171446800232
1683385915686763000,1.630762939453125,0.17898350954055786,-1.570534586906433,-0.05742133408784866
1683385915696793300,1.64079345703125,0.13316862285137177,-1.4440854787826538,-0.048258353024721146
1683385915706752000,1.650751953125,0.048258353024721146,-1.3518447875976562,-0.06414084881544113
1683385915716782000,1.660781982421875,-0.019547687843441963,-1.2571606636047363,-0.10201449692249298
1683385915726771500,1.670771484375,-0.048258353024721146,-1.1007791757583618,-0.14049901068210602
1683385915736801800,1.6808017578125,-0.060475658625364304,-0.8625417351722717,-0.18509216606616974
1683385915746760700,1.6907607421875,-0.04459316283464432,-0.6707300543785095,-0.1875356286764145
1683385915756790800,1.700790771484375,0.006719517521560192,-0.5345070958137512,-0.15454891324043274
1683385915766780000,1.71077978515625,0.09285151958465576,-0.5247332453727722,-0.06841690838336945
1683385915776779800,1.72077978515625,0.11850785464048386,-0.5571091175079346,-0.03420845419168472
1683385915786769200,1.73076904296875,0.08002334833145142,-0.6762278079986572,-0.03420845419168472
1683385915796799500,1.740799560546875,0.042760565876960754,-0.8124507665634155,-0.04459316283464432
1683385915806758100,1.750758056640625,0.04581489413976669,-0.8863654732704163,-0.04092797264456749
1683385915816788200,1.760788330078125,0.03848451003432274,-0.9388998746871948,-0.05192354694008827
1683385915826777900,1.77077783203125,0.02015855349600315,-0.9663888216018677,-0.0708603709936142
1683385915836777500,1.780777587890625,0.00733038317412138,-0.9480628371238708,-0.08491026610136032
1683385915846766800,1.790766845703125,0.001832595793530345,-0.901637077331543,-0.08307767659425735
1683385915856791000,1.800791015625,0.00855211354792118,-0.8478809595108032,-0.06902777403593063
1683385915866754800,1.8107548828125,0.013439035043120384,-0.7525860071182251,-0.05497787147760391
1683385915876785000,1.820784912109375,0.02076941914856434,-0.6236934065818787,-0.04398229718208313
1683385915886774500,1.8307744140625,0.04092797264456749,-0.5522221922874451,-0.02015855349600315
1683385915896774100,1.840774169921875,0.0555887371301651,-0.5699372887611389,-0.009773843921720982
1683385915906763300,1.85076318359375,0.07330382615327835,-0.6414085030555725,-0.00733038317412138
1683385915916793900,1.8607939453125,0.08979719132184982,-0.6805039048194885,-0.005497787147760391
1683385915926752300,1.870752197265625,0.11056660860776901,-0.665232241153717,-0.005497787147760391
1683385915936785000,1.880784912109375,0.15577064454555511,-0.6322455406188965,0.01771509274840355
1683385915946772000,1.89077197265625,0.17592918872833252,-0.588263213634491,0.051312681287527084
1683385915956774400,1.9007744140625,0.18081611394882202,-0.5345070958137512,0.060475658625364304
1683385915966761500,1.910761474609375,0.1618792861700058,-0.47342056035995483,0.0659734457731247
1683385915976794000,1.920794189453125,0.1362229436635971,-0.36651915311813354,0.06536258012056351
1683385915986781200,1.93078125,0.09285151958465576,-0.21930062770843506,0.054367005825042725
1683385915996783000,1.940783203125,0.02932153269648552,-0.07147123664617538,0.021991148591041565
1683385916006770200,1.950770263671875,0.00855211354792118,0.04214970022439957,0.009773843921720982
1683385916016802600,1.960802490234375,0.007941247895359993,0.06841690838336945,0.014049900695681572
1683385916026759200,1.97075927734375,0.006108652334660292,0.06169738993048668,0.00427605677396059
1683385916036791600,1.98079150390625,0.007941247895359993,-0.00427605677396059,-0.0012217304902151227
1683385916046779000,1.99077880859375,0.01466076634824276,-0.07819075137376785,-0.001832595793530345
1683385916056780300,2.0007802734375,0.018325956538319588,-0.10995574295520782,0.001832595793530345
1683385916066767600,2.010767578125,0.01466076634824276,-0.04092797264456749,0.00366519158706069
1683385916076800000,2.020800048828125,0.013439035043120384,0.04337143152952194,0.01038470957428217
1683385916086756900,2.0307568359375,0.018325956538319588,0.05192354694008827,0.015882495790719986
1683385916096789200,2.040789306640625,0.025656340643763542,-0.04642575979232788,0.018936822190880775
1683385916106776300,2.0507763671875,0.02321287989616394,-0.17837265133857727,0.00427605677396059
1683385916116778000,2.060778076171875,0.019547687843441963,-0.2791654169559479,-0.009162978269159794
1683385916126765600,2.070765625,0.02382374368607998,-0.34758231043815613,-0.00855211354792118
1683385916136797700,2.080797607421875,0.02932153269648552,-0.39645153284072876,-0.00427605677396059
1683385916146754300,2.09075439453125,0.031154127791523933,-0.40256020426750183,0
1683385916156786400,2.100786376953125,0.039706241339445114,-0.3543018400669098,0.013439035043120384
1683385916166773800,2.110773681640625,0.06658431142568588,-0.2791654169559479,0.039095375686883926
1683385916176775700,2.120775634765625,0.09346238523721695,-0.2015855312347412,0.06841690838336945
1683385916186763000,2.130762939453125,0.10690141469240189,-0.09651670604944229,0.08857546001672745
1683385916196795400,2.14079541015625,0.10873401165008545,0.051312681287527084,0.09896016865968704
1683385916206752000,2.150751953125,0.09896016865968704,0.20402899384498596,0.09957103431224823
1683385916216784100,2.1607841796875,0.07819075137376785,0.33292156457901,0.09040805697441101
1683385916226771500,2.170771484375,0.059864792972803116,0.4495968222618103,0.07391469180583954
1683385916236803800,2.180803955078125,0.05375614017248154,0.5051855444908142,0.06780604273080826
1683385916246760400,2.190760498046875,0.05375614017248154,0.4447098970413208,0.06780604273080826
1683385916256792800,2.200792724609375,0.06291911751031876,0.33536502718925476,0.07024950534105301
1683385916266780000,2.21077978515625,0.08246681094169617,0.22846360504627228,0.08002334833145142
1683385916276781800,2.22078173828125,0.09162978827953339,0.1411098688840866,0.08429940044879913
1683385916286769000,2.230768798828125,0.08185594528913498,0.08002334833145142,0.07635815441608429
1683385916296801500,2.240801513671875,0.0555887371301651,0.04948008432984352,0.05742133408784866
1683385916306758100,2.250758056640625,0.025656340643763542,0.0507018156349659,0.03481931984424591
1683385916316790500,2.26079052734375,0.015882495790719986,0.06536258012056351,0.025656340643763542
1683385916326777600,2.270777587890625,0.01466076634824276,0.06475171446800232,0.024434609338641167
1683385916336639200,2.28063916015625,0.01466076634824276,0.06475171446800232,0.02382374368607998
1683385916346766600,2.2907666015625,0.01710422709584236,0.024434609338641167,0.021380282938480377
1683385916356799000,2.300799072265625,0.02687807008624077,-0.10384709388017654,0.02626720629632473
1683385916366755600,2.310755615234375,0.031154127791523933,-0.1459967941045761,0.027488935738801956
1683385916376788000,2.3207880859375,0.036041051149368286,-0.14049901068210602,0.02871066704392433
1683385916386775000,2.330775146484375,0.048258353024721146,-0.10751228034496307,0.04214970022439957
1683385916396777000,2.34077685546875,0.05803219974040985,-0.04764748737215996,0.05314527451992035
1683385916406764000,2.350763916015625,0.06108652427792549,0.04703662544488907,0.05314527451992035
1683385916416796700,2.360796630859375,0.04948008432984352,0.13744467496871948,0.04642575979232788
1683385916426753300,2.370753173828125,0.02687807008624077,0.19120082259178162,0.03176499158143997
1683385916436785400,2.380785400390625,0.00855211354792118,0.22113321721553802,0.01771509274840355
1683385916446772700,2.390772705078125,0.00366519158706069,0.25045475363731384,0.016493361443281174
1683385916456774400,2.4007744140625,0.009773843921720982,0.25473082065582275,0.02382374368607998
1683385916466761500,2.410761474609375,0.009773843921720982,0.2632829248905182,0.027488935738801956
1683385916476793900,2.4207939453125,0.00733038317412138,0.28955012559890747,0.025656340643763542
1683385916486781200,2.43078125,0.006719517521560192,0.32681289315223694,0.024434609338641167
1683385916496783000,2.440783203125,0,0.38117989897727966,0.018936822190880775
1683385916506770400,2.4507705078125,-0.00366519158706069,0.4447098970413208,0.014049900695681572
1683385916516802600,2.460802490234375,-0.005497787147760391,0.5210680365562439,0.014049900695681572
1683385916526759200,2.47075927734375,-0.006108652334660292,0.6279694437980652,0.015882495790719986
1683385916536791600,2.48079150390625,-0.010995574295520782,0.7531968355178833,0.01710422709584236
1683385916546779000,2.49077880859375,-0.01160643994808197,0.8491026759147644,0.024434609338641167
1683385916556780500,2.500780517578125,-0.010995574295520782,0.9431759119033813,0.03176499158143997
1683385916566767600,2.510767578125,-0.004886921960860491,1.072068452835083,0.045204028487205505
1683385916576798000,2.5207978515625,0.00427605677396059,1.2443325519561768,0.06475171446800232
1683385916586756900,2.5307568359375,0.021991148591041565,1.4110987186431885,0.0861319974064827
1683385916596787200,2.540787109375,0.031154127791523933,1.513113260269165,0.09407325088977814
1683385916606806800,2.550806884765625,0.029932396486401558,1.5729780197143555,0.08979719132184982
1683385916616776000,2.56077587890625,0.03237585723400116,1.6224581003189087,0.08735372871160507
1683385916626765300,2.570765380859375,0.04153883829712868,1.665218710899353,0.08796459436416626
1683385916636795600,2.580795654296875,0.07391469180583954,1.6865988969802856,0.0959058403968811
1683385916646754300,2.59075439453125,0.1362229436635971,1.623068928718567,0.1215621829032898
1683385916656784600,2.60078466796875,0.24495697021484375,1.4550809860229492,0.15454891324043274
1683385916666773800,2.610773681640625,0.2773328125476837,1.3952162265777588,0.16493362188339233
1683385916676774000,2.62077392578125,0.24434609711170197,1.3457361459732056,0.13927727937698364
1683385916686762800,2.6307626953125,0.1417207419872284,1.2693779468536377,0.09957103431224823
1683385916696793000,2.64079296875,0.04764748737215996,1.2834278345108032,0.01038470957428217
1683385916706752000,2.650751953125,-0.019547687843441963,1.2095131874084473,-0.02321287989616394
1683385916716782000,2.660781982421875,-0.012217304669320583,1.1252137422561646,-0.021380282938480377
1683385916726771500,2.670771484375,0.0012217304902151227,1.06657075881958,-0.014049900695681572
1683385916736801500,2.680801513671875,0.06902777403593063,1.0525208711624146,0.006108652334660292
1683385916746760400,2.690760498046875,0.15760323405265808,1.0934487581253052,0.02871066704392433
1683385916756790800,2.700790771484375,0.21441370248794556,1.151481032371521,0.03726277872920036
1683385916766780000,2.71077978515625,0.25534167885780334,1.2565498352050781,0.04948008432984352
1683385916776779800,2.72077978515625,0.24068090319633484,1.3836097717285156,0.04153883829712868
1683385916786769200,2.73076904296875,0.19058994948863983,1.4660766124725342,0.027488935738801956
1683385916796799500,2.740799560546875,0.14416420459747314,1.503339409828186,0.016493361443281174
1683385916806758100,2.750758056640625,0.11423180252313614,1.5125023126602173,0.007941247895359993
1683385916816789500,2.76078955078125,0.10262536257505417,1.5247195959091187,0.004886921960860491
1683385916826777600,2.770777587890625,0.10934487730264664,1.5919147729873657,0.004886921960860491
1683385916836778500,2.780778564453125,0.12522737681865692,1.7177530527114868,0.00366519158706069
1683385916846766800,2.790766845703125,0.1472185254096985,1.8216001987457275,0.009162978269159794
1683385916856791000,2.800791015625,0.12217304855585098,1.8570303916931152,0.00427605677396059
1683385916866754800,2.8107548828125,0.045204028487205505,1.8466455936431885,-0.0024434609804302454
1683385916876786200,2.8207861328125,0.05009094998240471,1.7983872890472412,-0.0012217304902151227
1683385916886774500,2.8307744140625,0.04703662544488907,1.7177530527114868,0.001832595793530345
1683385916896775200,2.840775146484375,0.04153883829712868,1.5821410417556763,0.004886921960860491
1683385916906763500,2.850763427734375,0.04153883829712868,1.405600905418396,0.00855211354792118
1683385916916795000,2.860794921875,0.02932153269648552,1.2034045457839966,0.012217304669320583
1683385916926752300,2.870752197265625,0.001832595793530345,0.8362745046615601,0
1683385916936784000,2.880783935546875,0.006719517521560192,0.192422553896904,0.019547687843441963
1683385916946772000,2.89077197265625,0.02382374368607998,0.03787364438176155,-0.003054326167330146
1683385916956773400,2.9007734375,0.024434609338641167,0.09040805697441101,0.006719517521560192
1683385916966761500,2.910761474609375,0.02382374368607998,0.09834930300712585,0.006719517521560192
1683385916976793000,2.92079296875,0.02321287989616394,0.07208210229873657,0.00427605677396059
1683385916986781200,2.93078125,0.024434609338641167,0.06536258012056351,0.0024434609804302454
1683385916996782000,2.940781982421875,0.02382374368607998,0.06719517707824707,0.003054326167330146
1683385917006770200,2.950770263671875,0.024434609338641167,0.06230825558304787,0.0024434609804302454
1683385917016801500,2.960801513671875,0.02321287989616394,0.05619960278272629,0.0006108652451075613
1683385917026759400,2.970759521484375,0.024434609338641167,0.04948008432984352,0.0012217304902151227
1683385917036790800,2.980790771484375,0.022602014243602753,0.05009094998240471,0.0024434609804302454
1683385917046779000,2.99077880859375,0.021991148591041565,0.05925392732024193,0.00427605677396059
1683385917056779800,3.00077978515625,0.025045474991202354,0.06902777403593063,0.006719517521560192
1683385917066767600,3.010767578125,0.02382374368607998,0.0555887371301651,0.009773843921720982
1683385917076799200,3.02079931640625,0.02382374368607998,0.04703662544488907,0.009773843921720982
1683385917086756900,3.0307568359375,0.025656340643763542,0.04642575979232788,0.00855211354792118
1683385917096788500,3.04078857421875,0.02687807008624077,0.0403171069920063,0.006719517521560192
1683385917106776300,3.0507763671875,0.028099801391363144,0.0354301854968071,0.003054326167330146
1683385917116777500,3.060777587890625,0.031154127791523933,0.030543262138962746,0.0012217304902151227
1683385917126765300,3.070765380859375,0.03298672288656235,0.02871066704392433,-0.0012217304902151227
1683385917136797000,3.080796875,0.031154127791523933,0.025656340643763542,-0.001832595793530345
1683385917146754300,3.09075439453125,0.030543262138962746,0.018325956538319588,-0.00427605677396059
1683385917156786200,3.1007861328125,0.022602014243602753,0.019547687843441963,-0.00427605677396059
1683385917166773800,3.110773681640625,0.021380282938480377,0.019547687843441963,-0.004886921960860491
1683385917176775000,3.12077490234375,0.02015855349600315,0.02076941914856434,-0.00366519158706069
1683385917186762800,3.1307626953125,0.021991148591041565,0.021380282938480377,-0.004886921960860491
1683385917196794600,3.140794677734375,0.021991148591041565,0.021991148591041565,-0.00427605677396059
1683385917206752000,3.150751953125,0.02382374368607998,0.039706241339445114,0.001832595793530345
1683385917216783400,3.160783447265625,0.022602014243602753,0.03726277872920036,0.00427605677396059
1683385917226771500,3.170771484375,0.02382374368607998,0.02321287989616394,-0.0024434609804302454
1683385917236803000,3.180802978515625,0.022602014243602753,0.02321287989616394,-0.001832595793530345
1683385917246760400,3.190760498046875,0.02321287989616394,0.021380282938480377,-0.0012217304902151227
1683385917256792300,3.200792236328125,0.021380282938480377,0.022602014243602753,-0.0012217304902151227
1683385917266780000,3.21077978515625,0.02321287989616394,0.022602014243602753,-0.001832595793530345
1683385917276781300,3.22078125,0.022602014243602753,0.022602014243602753,-0.001832595793530345
1683385917286769000,3.230768798828125,0.022602014243602753,0.021991148591041565,-0.001832595793530345
1683385917296800800,3.24080078125,0.022602014243602753,0.021991148591041565,-0.0006108652451075613
1683385917306758000,3.2507578125,0.02321287989616394,0.022602014243602753,-0.0024434609804302454
1683385917316789500,3.26078955078125,0.021991148591041565,0.021991148591041565,-0.0012217304902151227
1683385917326777600,3.270777587890625,0.022602014243602753,0.022602014243602753,-0.0024434609804302454
1683385917336778500,3.280778564453125,0.021991148591041565,0.022602014243602753,-0.0024434609804302454
1683385917346766600,3.2907666015625,0.022602014243602753,0.021991148591041565,-0.001832595793530345
1683385917356798200,3.300798095703125,0.022602014243602753,0.021991148591041565,-0.0012217304902151227
1683385917366755600,3.310755615234375,0.021991148591041565,0.01466076634824276,-0.0012217304902151227
1683385917376787200,3.320787109375,0.022602014243602753,0.021380282938480377,0.001832595793530345
1683385917386775000,3.330775146484375,0.02321287989616394,0.02382374368607998,-0.0024434609804302454
1683385917396776000,3.34077587890625,0.02382374368607998,0.02626720629632473,-0.00427605677396059
1683385917406764000,3.350763916015625,0.021991148591041565,0.02321287989616394,-0.001832595793530345
1683385917416795600,3.360795654296875,0.021991148591041565,0.02321287989616394,-0.0012217304902151227
1683385917426753000,3.3707529296875,0.021991148591041565,0.022602014243602753,-0.0024434609804302454
1683385917436784600,3.38078466796875,0.022602014243602753,0.02626720629632473,-0.0006108652451075613
1683385917446772700,3.390772705078125,0.022602014243602753,0.015882495790719986,-0.001832595793530345
1683385917456774000,3.40077392578125,0.021991148591041565,0.014049900695681572,-0.00366519158706069
1683385917466761700,3.41076171875,0.022602014243602753,0.01710422709584236,-0.004886921960860491
1683385917476793000,3.42079296875,0.022602014243602753,0.021991148591041565,-0.00366519158706069
1683385917486781200,3.43078125,0.021380282938480377,0.02321287989616394,0
1683385917496782000,3.440781982421875,0.021991148591041565,0.027488935738801956,0.001832595793530345
1683385917506770200,3.450770263671875,0.021991148591041565,0.027488935738801956,-0.0006108652451075613
1683385917516801500,3.460801513671875,0.022602014243602753,0.025045474991202354,-0.0012217304902151227
1683385917526759200,3.47075927734375,0.021991148591041565,0.02076941914856434,-0.0024434609804302454
1683385917536790800,3.480790771484375,0.01710422709584236,0.016493361443281174,-0.001832595793530345
1683385917546778600,3.490778564453125,-0.06536258012056351,0.009162978269159794,-0.004886921960860491
1683385917556779800,3.50077978515625,-0.12950342893600464,0.013439035043120384,-0.004886921960860491
1683385917566767600,3.510767578125,-0.1160643994808197,0.01771509274840355,-0.0024434609804302454
1683385917576799200,3.52079931640625,0.02076941914856434,0.01710422709584236,-0.00366519158706069
1683385917586756600,3.530756591796875,0.022602014243602753,0.015271631069481373,-0.00427605677396059
1683385917596788500,3.54078857421875,0.02321287989616394,0.024434609338641167,-0.0006108652451075613
1683385917606776300,3.5507763671875,0.021991148591041565,0.02321287989616394,0
1683385917616777200,3.560777099609375,0.021991148591041565,0.024434609338641167,0.0006108652451075613
1683385917626765300,3.570765380859375,0.021380282938480377,0.025656340643763542,0
1683385917636821500,3.580821533203125,0.02015855349600315,0.028099801391363144,0.001832595793530345
1683385917646754300,3.59075439453125,0.01771509274840355,0.021991148591041565,0
1683385917656786000,3.600785888671875,-0.00733038317412138,0.02321287989616394,0.001832595793530345
1683385917666773800,3.610773681640625,-0.13561208546161652,0.02687807008624077,0.001832595793530345
1683385917676775000,3.62077490234375,-0.2590068578720093,0.021380282938480377,0
1683385917686763000,3.630762939453125,-0.21380282938480377,0.02015855349600315,0
1683385917696794400,3.64079443359375,-0.09651670604944229,0.024434609338641167,0
1683385917706752000,3.650751953125,-0.05925392732024193,0.02626720629632473,-0.0012217304902151227
1683385917716783600,3.66078369140625,-0.03176499158143997,0.025045474991202354,0.0006108652451075613
1683385917726771500,3.670771484375,0.015271631069481373,0.025045474991202354,0.00427605677396059
1683385917736803000,3.680802978515625,0.022602014243602753,0.02321287989616394,0.005497787147760391
1683385917746760400,3.690760498046875,0.02382374368607998,0.02382374368607998,0.005497787147760391
1683385917756792000,3.7007919921875,0.021991148591041565,0.02626720629632473,0.004886921960860491
1683385917766780200,3.7107802734375,-0.00733038317412138,0.031154127791523933,0.005497787147760391
1683385917776781000,3.720781005859375,-0.00733038317412138,0.029932396486401558,0.00427605677396059
1683385917786769200,3.73076904296875,0.05742133408784866,0.02626720629632473,0.00733038317412138
1683385917796800800,3.74080078125,0.12217304855585098,0.025045474991202354,0.01710422709584236
1683385917806758100,3.750758056640625,0.1362229436635971,0.018325956538319588,0.02687807008624077
1683385917816789800,3.760789794921875,0.11545353382825851,0.010995574295520782,0.04703662544488907
1683385917826777600,3.770777587890625,0.08307767659425735,-0.0006108652451075613,0.09773843735456467
1683385917836778500,3.780778564453125,0.09224065393209457,0.018325956538319588,0.15271630883216858
1683385917846766800,3.790766845703125,0.08002334833145142,0.028099801391363144,0.14844025671482086
1683385917856792300,3.800792236328125,0.0806342139840126,0.042760565876960754,0.1160643994808197
1683385917866754800,3.8107548828125,0.1667662113904953,0.0507018156349659,0.1111774742603302
1683385917876786400,3.820786376953125,0.21991148591041565,0.04703662544488907,0.1319468915462494
1683385917886774300,3.830774169921875,0.18448130786418915,0.028099801391363144,0.15760323405265808
1683385917896775400,3.840775390625,0.14355333149433136,0.0012217304902151227,0.16737708449363708
1683385917906763300,3.85076318359375,0.1411098688840866,-0.004886921960860491,0.1618792861700058
1683385917916794600,3.860794677734375,0.15943582355976105,-0.00427605677396059,0.1514945775270462
1683385917926752300,3.870752197265625,0.17470745742321014,0.012828170321881771,0.14416420459747314
1683385917936784100,3.8807841796875,0.20402899384498596,0.025045474991202354,0.14844025671482086
1683385917946772000,3.89077197265625,0.22418753802776337,0.033597588539123535,0.1814269721508026
1683385917956774000,3.90077392578125,0.22968533635139465,0.03726277872920036,0.2480112910270691
1683385917966761500,3.910761474609375,0.18509216606616974,0.03787364438176155,0.3500257730484009
1683385917976793000,3.92079296875,0.07635815441608429,0.03420845419168472,0.4599815309047699
1683385917986781200,3.93078125,-0.009773843921720982,0.0354301854968071,0.5510004758834839
1683385917996781800,3.94078173828125,-0.08735372871160507,0.015882495790719986,0.6285803318023682
1683385918006770200,3.950770263671875,-0.13561208546161652,0.0024434609804302454,0.6927211880683899
1683385918016801500,3.960801513671875,-0.14538592100143433,-0.015882495790719986,0.7483099102973938
1683385918026759400,3.970759521484375,-0.10506882518529892,-0.02015855349600315,0.79840087890625
1683385918036790800,3.980790771484375,-0.036041051149368286,-0.01466076634824276,0.8295549750328064
1683385918046779000,3.99077880859375,0.007941247895359993,-0.0024434609804302454,0.8289441466331482
1683385918056779500,4.000779541015625,0.05803219974040985,0.007941247895359993,0.788016140460968
1683385918066767600,4.010767578125,0.1313360333442688,0.03726277872920036,0.7574729323387146
1683385918076799200,4.02079931640625,0.19303341209888458,0.05314527451992035,0.7519751191139221
1683385918086756600,4.030756591796875,0.2064724564552307,0.06169738993048668,0.7531968355178833
1683385918096788200,4.040788330078125,0.14844025671482086,0.06352998316287994,0.7715228199958801
1683385918106776300,4.0507763671875,0.05314527451992035,0.05742133408784866,0.8216137290000916
1683385918116777200,4.060777099609375,-0.04642575979232788,0.010995574295520782,0.8698720932006836
1683385918126765300,4.070765380859375,-0.12767083942890167,-0.014049900695681572,0.8784242272377014
1683385918136797000,4.080796875,-0.15393804013729095,-0.029932396486401558,0.8252789378166199
1683385918146754300,4.09075439453125,-0.060475658625364304,-0.01771509274840355,0.8106181621551514
1683385918156784600,4.10078466796875,0.09162978827953339,0.02076941914856434,0.8381071090698242
1683385918166773800,4.110773681640625,0.20891591906547546,0.059864792972803116,0.8680394887924194
1683385918176775000,4.12077490234375,0.25473082065582275,0.09346238523721695,0.8833111524581909
1683385918186762800,4.1307626953125,0.25106561183929443,0.09468411654233932,0.8881980776786804
1683385918196794000,4.140794189453125,0.21502456068992615,0.08368854224681854,0.8759807348251343
1683385918206751700,4.150751708984375,0.18081611394882202,0.05803219974040985,0.8387179970741272
1683385918216782800,4.160782958984375,0.14049901068210602,0.05192354694008827,0.797789990901947
1683385918226771500,4.170771484375,0.10445795953273773,0.04703662544488907,0.7629706859588623
1683385918236802300,4.18080224609375,0.09224065393209457,0.04092797264456749,0.7293730974197388
1683385918246760400,4.190760498046875,0.08124507963657379,0.045204028487205505,0.7147123217582703
1683385918256791000,4.200791015625,0.08124507963657379,0.04886921867728233,0.7287622094154358
1683385918266780000,4.21077978515625,0.08429940044879913,0.039706241339445114,0.770301103591919
1683385918276780300,4.2207802734375,0.07024950534105301,0.036041051149368286,0.8283332586288452
1683385918286769000,4.230768798828125,0.04703662544488907,0.021991148591041565,0.8814785480499268
1683385918296800000,4.240800048828125,0.00855211354792118,0.006719517521560192,0.9108000993728638
1683385918306758100,4.250758056640625,-0.018936822190880775,-0.003054326167330146,0.9334021210670471
1683385918316789000,4.2607890625,-0.039706241339445114,-0.005497787147760391,0.9468411207199097
1683385918326777600,4.270777587890625,-0.08246681094169617,0.0012217304902151227,0.9572258591651917
1683385918336778000,4.280778076171875,-0.10445795953273773,-0.00855211354792118,0.9468411207199097
1683385918346766600,4.2907666015625,-0.13439035415649414,-0.00366519158706069,0.9462302923202515
1683385918356797400,4.30079736328125,-0.13988813757896423,-0.015271631069481373,0.9950994849205017
1683385918366755300,4.31075537109375,-0.14844025671482086,-0.018325956538319588,1.0427470207214355
1683385918376786400,4.320786376953125,-0.16859880089759827,-0.0403171069920063,1.0757336616516113
1683385918386775000,4.330775146484375,-0.182648703455925,-0.06352998316287994,1.0659598112106323
1683385918396775700,4.340775634765625,-0.17470745742321014,-0.06475171446800232,1.015868902206421
1683385918406764300,4.350764404296875,-0.15393804013729095,-0.05803219974040985,0.9560040831565857
1683385918416795100,4.360795166015625,-0.10384709388017654,-0.039706241339445114,0.9083566069602966
1683385918426753000,4.3707529296875,-0.00427605677396059,0.00855211354792118,0.8955284357070923
1683385918436783900,4.380783935546875,0.08796459436416626,0.07696902006864548,0.9266825914382935
1683385918446772500,4.3907724609375,0.039706241339445114,0.06963863968849182,0.9230173826217651
1683385918456772400,4.4007724609375,-0.06536258012056351,-0.0012217304902151227,0.8387179970741272
1683385918466761700,4.41076171875,-0.1661553531885147,-0.06230825558304787,0.7324274182319641
1683385918476792600,4.42079248046875,-0.192422553896904,-0.08185594528913498,0.6914994716644287
1683385918486781200,4.43078125,-0.16371189057826996,-0.06719517707824707,0.6530149579048157
1683385918496781600,4.440781494140625,-0.10201449692249298,-0.04214970022439957,0.5839871764183044
1683385918506770200,4.450770263671875,-0.018936822190880775,-0.00733038317412138,0.4899139404296875
1683385918516801300,4.46080126953125,0.06169738993048668,0.03176499158143997,0.42271876335144043
1683385918526759400,4.470759521484375,0.17592918872833252,0.0910189226269722,0.41599923372268677
1683385918536790300,4.480790283203125,0.2638937830924988,0.1417207419872284,0.47280970215797424
1683385918546778600,4.490778564453125,0.2125810980796814,0.1160643994808197,0.5094616413116455
1683385918556779300,4.500779296875,0.11301007121801376,0.07208210229873657,0.5021312236785889
1683385918566767600,4.510767578125,0.031154127791523933,0.028099801391363144,0.46181413531303406
1683385918576800800,4.52080078125,-0.02932153269648552,-0.003054326167330146,0.4080579876899719
1683385918586756900,4.5307568359375,-0.056810468435287476,-0.015882495790719986,0.38179078698158264
1683385918596789800,4.540789794921875,-0.0354301854968071,0.0012217304902151227,0.39156460762023926
1683385918606776300,4.5507763671875,0.009162978269159794,0.024434609338641167,0.4080579876899719
1683385918616778800,4.56077880859375,0.021991148591041565,0.021991148591041565,0.4031710624694824
1683385918626765300,4.570765380859375,-0.009773843921720982,0.00366519158706069,0.3481931984424591
1683385918636798200,4.580798095703125,-0.04703662544488907,-0.014049900695681572,0.22296582162380219
1683385918646754600,4.590754638671875,-0.007941247895359993,0.00427605677396059,0.10201449692249298
1683385918656787700,4.60078759765625,0.059864792972803116,0.03237585723400116,0.03298672288656235
1683385918666773800,4.610773681640625,0.07635815441608429,0.048258353024721146,0.009773843921720982
1683385918676776700,4.620776611328125,0.06963863968849182,0.04398229718208313,0.00366519158706069
1683385918686763000,4.630762939453125,0.04703662544488907,0.03176499158143997,-0.009162978269159794
1683385918696796200,4.640796142578125,0.015271631069481373,0.015882495790719986,-0.024434609338641167
1683385918706752000,4.650751953125,-0.012828170321881771,0.0024434609804302454,-0.03481931984424591
1683385918716785000,4.660784912109375,-0.010995574295520782,0.006108652334660292,-0.04886921867728233
1683385918726771500,4.670771484375,0.029932396486401558,0.024434609338641167,-0.1014036312699318
1683385918736804600,4.6808046875,0.03848451003432274,0.028099801391363144,-0.11667526513338089
1683385918746760400,4.690760498046875,0.02871066704392433,0.028099801391363144,-0.11545353382825851
1683385918756791300,4.700791259765625,0.022602014243602753,0.022602014243602753,-0.10567969083786011
1683385918766780200,4.7107802734375,0.010995574295520782,0.021380282938480377,-0.09712757170200348
1683385918776782800,4.720782958984375,0,0.00855211354792118,-0.10018189996480942
1683385918786769200,4.73076904296875,-0.006719517521560192,0.0024434609804302454,-0.09346238523721695
1683385918796800000,4.740800048828125,0.03420845419168472,0.02015855349600315,-0.05314527451992035
1683385918806758100,4.750758056640625,0.028099801391363144,0.02076941914856434,-0.05253441259264946
1683385918816791300,4.760791259765625,-0.012828170321881771,0.00855211354792118,-0.1160643994808197
1683385918826777600,4.770777587890625,0.01466076634824276,0.02932153269648552,-0.1514945775270462
1683385918836778000,4.780778076171875,0.04886921867728233,0.03726277872920036,-0.152105450630188
1683385918846766800,4.790766845703125,0.04948008432984352,0.039095375686883926,-0.16371189057826996
1683385918856791600,4.80079150390625,0.04459316283464432,0.039095375686883926,-0.16920967400074005
1683385918866754800,4.8107548828125,0.04459316283464432,0.03176499158143997,-0.1765400618314743
1683385918876786000,4.820785888671875,0.039095375686883926,0.028099801391363144,-0.19058994948863983
1683385918886774500,4.8307744140625,0.0354301854968071,0.022602014243602753,-0.21319197118282318
1683385918896777000,4.84077685546875,0.03726277872920036,0.02076941914856434,-0.2431243658065796
1683385918906763300,4.85076318359375,0.03787364438176155,0.02626720629632473,-0.2736676335334778
1683385918916794000,4.860794189453125,0.04764748737215996,0.033597588539123535,-0.3078760802745819
1683385918926752300,4.870752197265625,0.06475171446800232,0.03726277872920036,-0.33536502718925476
1683385918936783400,4.880783447265625,0.06780604273080826,0.04153883829712868,-0.35613444447517395
1683385918946772000,4.89077197265625,0.05925392732024193,0.03787364438176155,-0.3830125033855438
1683385918956772900,4.90077294921875,0.042760565876960754,0.031154127791523933,-0.4190535545349121
1683385918966761500,4.910761474609375,0.03298672288656235,0.02871066704392433,-0.46303585171699524
1683385918976792600,4.92079248046875,0.03481931984424591,0.029932396486401558,-0.5070181488990784
1683385918986781200,4.93078125,0.042760565876960754,0.036041051149368286,-0.5564982295036316
1683385918996781600,4.940781494140625,0.05925392732024193,0.04092797264456749,-0.6047565937042236
1683385919006770200,4.950770263671875,0.08185594528913498,0.04886921867728233,-0.6407976150512695
1683385919016801300,4.96080126953125,0.08918632566928864,0.04948008432984352,-0.6817256212234497
1683385919026759200,4.97075927734375,0.07880161702632904,0.0403171069920063,-0.7641924023628235
1683385919036790300,4.980790283203125,0.0354301854968071,0.02382374368607998,-0.8350527882575989
1683385919046778600,4.990778564453125,0.029932396486401558,0.025045474991202354,-0.9083566069602966
1683385919056779000,5.000779052734375,0.04642575979232788,0.02687807008624077,-0.970054030418396
1683385919066768000,5.010767822265625,0.07452555745840073,0.04092797264456749,-1.017701506614685
1683385919076798700,5.020798828125,0.1417207419872284,0.06414084881544113,-1.0512990951538086
1683385919086756900,5.0307568359375,0.21319197118282318,0.08979719132184982,-1.0757336616516113
1683385919096787700,5.04078759765625,0.23090706765651703,0.09712757170200348,-1.0977247953414917
1683385919106776300,5.0507763671875,0.1612684279680252,0.06841690838336945,-1.1276572942733765
1683385919116776700,5.060776611328125,0.1270599663257599,0.0507018156349659,-1.1441506147384644
1683385919126765300,5.070765380859375,0.09773843735456467,0.039706241339445114,-1.13926362991333
1683385919136796200,5.080796142578125,0.06963863968849182,0.03237585723400116,-1.1349875926971436
1683385919146754300,5.09075439453125,0.051312681287527084,0.029932396486401558,-1.1270463466644287
1683385919156785200,5.10078515625,0.06108652427792549,0.04153883829712868,-1.1227703094482422
1683385919166773800,5.110773681640625,0.10934487730264664,0.05009094998240471,-1.1270463466644287
1683385919176774100,5.120774169921875,0.1411098688840866,0.05192354694008827,-1.1386528015136719
1683385919186763000,5.130762939453125,0.1459967941045761,0.05497787147760391,-1.1771373748779297
1683385919196793900,5.1407939453125,0.16554448008537292,0.056810468435287476,-1.2119566202163696
1683385919206752000,5.150751953125,0.19120082259178162,0.06352998316287994,-1.226617455482483
1683385919216782800,5.160782958984375,0.18509216606616974,0.06963863968849182,-1.2247848510742188
1683385919226771500,5.170771484375,0.1459967941045761,0.05253441259264946,-1.224173903465271
1683385919236802000,5.180802001953125,0.08002334833145142,0.03481931984424591,-1.2205088138580322
1683385919246760400,5.190760498046875,0.009773843921720982,0.015271631069481373,-1.244943380355835
1683385919256791800,5.200791748046875,-0.05009094998240471,0.005497787147760391,-1.2962560653686523
1683385919266780000,5.21077978515625,-0.08735372871160507,0.01038470957428217,-1.3506230115890503
1683385919276781000,5.220781005859375,-0.060475658625364304,0.02076941914856434,-1.4019356966018677
1683385919286769000,5.230768798828125,0.05192354694008827,0.03726277872920036,-1.4563027620315552
1683385919296800500,5.240800537109375,0.16432274878025055,0.03787364438176155,-1.4953981637954712
1683385919306758100,5.250758056640625,0.2119702398777008,0.0507018156349659,-1.5271631479263306
1683385919316789500,5.26078955078125,0.18570303916931152,0.1062905490398407,-1.483791708946228
1683385919326777600,5.270777587890625,0.09957103431224823,0.14294247329235077,-1.4483615159988403
1683385919336778500,5.280778564453125,0.022602014243602753,0.1466076523065567,-1.4379768371582031
1683385919346766300,5.290766357421875,0.018936822190880775,0.15271630883216858,-1.4660766124725342
1683385919356798200,5.300798095703125,0.05192354694008827,0.0507018156349659,-1.4813482761383057
1683385919366755600,5.310755615234375,0.11056660860776901,-0.20525072515010834,-1.4147639274597168
1683385919376787000,5.320786865234375,0.10995574295520782,-0.060475658625364304,-1.2577714920043945
1683385919386775000,5.330775146484375,-0.016493361443281174,0.5180137157440186,-0.627358615398407
1683385919396776000,5.34077587890625,0.10018189996480942,-0.03787364438176155,0.20463985204696655
1683385919406764000,5.350763916015625,0.12828169763088226,-0.16432274878025055,0.35185837745666504
1683385919416795600,5.360795654296875,0.025656340643763542,-0.04703662544488907,0.24190263450145721
1683385919426753300,5.370753173828125,0.04153883829712868,0.05497787147760391,0.013439035043120384
1683385919436784600,5.38078466796875,0.06841690838336945,0.12950342893600464,-0.22846360504627228
1683385919446772700,5.390772705078125,0.05925392732024193,0.16310101747512817,-0.3384193480014801
1683385919456773600,5.400773681640625,0.02687807008624077,0.08002334833145142,-0.24923302233219147
1683385919466761500,5.410761474609375,-0.025045474991202354,-0.007941247895359993,-0.1319468915462494
1683385919476793000,5.42079296875,-0.04886921867728233,-0.06536258012056351,-0.015882495790719986
1683385919486781200,5.43078125,0.0006108652451075613,-0.015271631069481373,-0.0012217304902151227
1683385919496782000,5.440781982421875,0.02321287989616394,-0.031154127791523933,0
1683385919506770200,5.450770263671875,0.02687807008624077,-0.0507018156349659,-0.0012217304902151227
1683385919516801500,5.460801513671875,0.04764748737215996,-0.0403171069920063,-0.0024434609804302454
1683385919526759200,5.47075927734375,0.04459316283464432,-0.04092797264456749,0
1683385919536790800,5.480790771484375,0.031154127791523933,-0.04092797264456749,0
1683385919546779000,5.49077880859375,0.028099801391363144,-0.03481931984424591,-0.0006108652451075613
1683385919556779500,5.500779541015625,0.019547687843441963,-0.02687807008624077,0
1683385919566767600,5.510767578125,0.0006108652451075613,-0.030543262138962746,0
1683385919576799000,5.520799072265625,-0.015882495790719986,-0.033597588539123535,-0.003054326167330146
1683385919586756900,5.5307568359375,-0.01710422709584236,-0.02687807008624077,-0.005497787147760391
1683385919596788200,5.540788330078125,0.003054326167330146,-0.00366519158706069,-0.006108652334660292
1683385919606776300,5.5507763671875,0.02076941914856434,0.005497787147760391,-0.00427605677396059
1683385919616777500,5.560777587890625,0.007941247895359993,0.021380282938480377,-0.0024434609804302454
1683385919626765300,5.570765380859375,-0.005497787147760391,0.02321287989616394,-0.0012217304902151227
1683385919636821800,5.58082177734375,0.016493361443281174,0.02687807008624077,-0.0006108652451075613
1683385919646754300,5.59075439453125,0.02626720629632473,0.025045474991202354,-0.0012217304902151227
1683385919656786000,5.600785888671875,0.027488935738801956,0.02321287989616394,-0.003054326167330146
1683385919666774000,5.61077392578125,0.03726277872920036,0.01771509274840355,-0.003054326167330146
1683385919676775200,5.620775146484375,0.09346238523721695,0.018936822190880775,-0.00366519158706069
1683385919686762800,5.6307626953125,0.17104226350784302,0.022602014243602753,-0.006108652334660292
1683385919696794600,5.640794677734375,0.15577064454555511,0.02321287989616394,-0.00427605677396059
1683385919706752000,5.650751953125,0.06230825558304787,0.02015855349600315,-0.0024434609804302454
1683385919716783600,5.66078369140625,0.02076941914856434,0.02015855349600315,-0.001832595793530345
1683385919726771500,5.670771484375,0.021991148591041565,0.015882495790719986,-0.004886921960860491
1683385919736803000,5.680802978515625,0.02321287989616394,0.024434609338641167,-0.0024434609804302454
1683385919746760700,5.6907607421875,0.02321287989616394,0.02626720629632473,-0.0006108652451075613
1683385919756792000,5.7007919921875,0.02382374368607998,0.024434609338641167,-0.0024434609804302454
1683385919766780000,5.71077978515625,0.021991148591041565,0.027488935738801956,-0.0012217304902151227
1683385919776780800,5.72078076171875,0.022602014243602753,0.02687807008624077,-0.003054326167330146
1683385919786769200,5.73076904296875,0.036651913076639175,0.01466076634824276,-0.004886921960860491
1683385919796800800,5.74080078125,0.05497787147760391,0.006108652334660292,-0.00733038317412138
1683385919806758100,5.750758056640625,-0.030543262138962746,0.02076941914856434,-0.003054326167330146
1683385919816789800,5.760789794921875,0.015271631069481373,0.015882495790719986,-0.00366519158706069
1683385919826777600,5.770777587890625,0.02321287989616394,0.02076941914856434,-0.0024434609804302454
1683385919836778800,5.78077880859375,0.022602014243602753,0.021991148591041565,-0.001832595793530345
1683385919846766800,5.790766845703125,0.021991148591041565,0.021991148591041565,-0.0024434609804302454
1683385919856792000,5.8007919921875,0.021991148591041565,0.02015855349600315,-0.0012217304902151227
1683385919866754800,5.8107548828125,0.021991148591041565,0.021991148591041565,-0.0012217304902151227
1683385919876786000,5.820785888671875,0.02321287989616394,0.022602014243602753,-0.001832595793530345
1683385919886774500,5.8307744140625,0.024434609338641167,0.018936822190880775,-0.0024434609804302454
1683385919896775400,5.840775390625,0.02321287989616394,0.02076941914856434,-0.0006108652451075613
1683385919906763300,5.85076318359375,0.02382374368607998,0.021991148591041565,-0.0024434609804302454
1683385919916795000,5.860794921875,0.02321287989616394,0.021380282938480377,-0.001832595793530345
1683385919926752300,5.870752197265625,0.021991148591041565,0.021991148591041565,-0.001832595793530345
1683385919936784000,5.880783935546875,0.02321287989616394,0.021991148591041565,-0.001832595793530345
1683385919946772000,5.89077197265625,0.022602014243602753,0.021380282938480377,-0.0024434609804302454
1683385919956774000,5.90077392578125,0.02321287989616394,0.02076941914856434,-0.0024434609804302454
1683385919966761500,5.910761474609375,0.025045474991202354,0.02321287989616394,-0.0012217304902151227
1683385919976793000,5.92079296875,0.025656340643763542,0.02932153269648552,0.001832595793530345
1683385919986781200,5.93078125,0.05803219974040985,0.02321287989616394,-0.0012217304902151227
1683385919996782000,5.940781982421875,0.3433062732219696,0.019547687843441963,-0.004886921960860491
1683385920006770400,5.9507705078125,0.5913175344467163,0.015882495790719986,-0.00855211354792118
1683385920016801800,5.9608017578125,0.5974262356758118,0.018936822190880775,-0.00855211354792118
1683385920026759400,5.970759521484375,0.4001167416572571,0.02626720629632473,-0.004886921960860491
1683385920036790800,5.980790771484375,0.11362093687057495,0.02687807008624077,-0.0012217304902151227
1683385920046779000,5.99077880859375,0.022602014243602753,0.01710422709584236,-0.0024434609804302454
1683385920056779800,6.00077978515625,0.02321287989616394,0.021380282938480377,-0.0024434609804302454
1683385920066767600,6.010767578125,0.022602014243602753,0.02321287989616394,-0.0024434609804302454
1683385920076799000,6.020799072265625,0.021991148591041565,0.021991148591041565,-0.0024434609804302454
1683385920086756900,6.0307568359375,0.022602014243602753,0.01710422709584236,-0.00366519158706069
1683385920096788700,6.040788818359375,0.021991148591041565,0.010995574295520782,-0.006108652334660292
1683385920106776300,6.0507763671875,0.01710422709584236,0.012828170321881771,-0.006719517521560192
1683385920116777500,6.060777587890625,-0.04642575979232788,0.019547687843441963,-0.0006108652451075613
1683385920126765300,6.070765380859375,-0.19853121042251587,0.022602014243602753,0.001832595793530345
1683385920136797000,6.080796875,-0.2070833146572113,0.027488935738801956,0.00366519158706069
1683385920146754300,6.09075439453125,-0.08918632566928864,0.03237585723400116,0.00427605677396059
1683385920156786200,6.1007861328125,0.01771509274840355,0.02626720629632473,-0.0012217304902151227
1683385920166773800,6.110773681640625,0.02321287989616394,0.01710422709584236,-0.005497787147760391
1683385920176775200,6.120775146484375,0.02321287989616394,0.00855211354792118,-0.01038470957428217
1683385920186762800,6.1307626953125,0.02382374368607998,0.00366519158706069,-0.015271631069481373
1683385920196794600,6.140794677734375,0.02382374368607998,-0.007941247895359993,-0.021380282938480377
1683385920206752000,6.150751953125,0.015882495790719986,-0.06414084881544113,-0.06169738993048668
1683385920216783400,6.160783447265625,-0.027488935738801956,-0.11667526513338089,-0.12278391420841217
1683385920226771500,6.170771484375,-0.09468411654233932,-0.10934487730264664,-0.20830504596233368
1683385920236803000,6.180802978515625,-0.15027284622192383,-0.012217304669320583,-0.28649580478668213
1683385920246760400,6.190760498046875,-0.12339477986097336,-0.039095375686883926,-0.26633724570274353
1683385920256791800,6.200791748046875,-0.05253441259264946,0.013439035043120384,-0.2021963894367218
1683385920266780200,6.2107802734375,0.0006108652451075613,0.04459316283464432,-0.12950342893600464
1683385920276780500,6.220780517578125,0.056810468435287476,0.06230825558304787,-0.10384709388017654
1683385920286769000,6.230768798828125,0.11484266817569733,0.0757472887635231,-0.15760323405265808
1683385920296800500,6.240800537109375,0.16493362188339233,0.10506882518529892,-0.2577851414680481
1683385920306758000,6.2507578125,0.19303341209888458,0.0555887371301651,-0.3836233615875244
1683385920316789500,6.26078955078125,0.19792033731937408,0.018325956538319588,-0.5204572081565857
1683385920326777600,6.270777587890625,0.19486601650714874,0.006108652334660292,-0.656069278717041
1683385920336778500,6.280778564453125,0.1368338167667389,-0.019547687843441963,-0.8063421249389648
1683385920346766600,6.2907666015625,0.05742133408784866,-0.00366519158706069,-0.950506329536438
1683385920356798200,6.300798095703125,-0.014049900695681572,0.012828170321881771,-1.0836749076843262
1683385920366755300,6.31075537109375,-0.06902777403593063,0.04703662544488907,-1.189354658126831
1683385920376787000,6.320786865234375,-0.06963863968849182,0.04214970022439957,-1.2809844017028809
1683385920386775000,6.330775146484375,-0.11056660860776901,0.03420845419168472,-1.3616186380386353
1683385920396776000,6.34077587890625,-0.1722639948129654,0.04581489413976669,-1.4141530990600586
1683385920406764000,6.350763916015625,-0.2119702398777008,0.06719517707824707,-1.4300355911254883
1683385920416795100,6.360795166015625,-0.19364428520202637,0.06169738993048668,-1.4269812107086182
1683385920426753000,6.3707529296875,-0.1569923609495163,0.030543262138962746,-1.4129313230514526
1683385920436784400,6.380784423828125,-0.14416420459747314,0.048258353024721146,-1.3909401893615723
1683385920446772700,6.390772705078125,-0.1417207419872284,0.036651913076639175,-1.3768903017044067
1683385920456772600,6.400772705078125,-0.13439035415649414,0.01771509274840355,-1.3915510177612305
1683385920466761500,6.410761474609375,-0.11911872029304504,0.01771509274840355,-1.4269812107086182
1683385920476793000,6.42079296875,-0.09529497474431992,0.05742133408784866,-1.4862351417541504
1683385920486781200,6.43078125,-0.10018189996480942,0.06169738993048668,-1.538158655166626
1683385920496781600,6.440781494140625,-0.10873401165008545,0.06658431142568588,-1.5864170789718628
1683385920506770400,6.4507705078125,-0.10506882518529892,0.05742133408784866,-1.585806131362915
1683385920516801300,6.46080126953125,-0.07757988572120667,0.0507018156349659,-1.5546520948410034
1683385920526759200,6.47075927734375,-0.04703662544488907,0.05803219974040985,-1.4947872161865234
1683385920536790000,6.4807900390625,-0.00733038317412138,0.028099801391363144,-1.4208725690841675
1683385920546778600,6.490778564453125,0.05009094998240471,0.009162978269159794,-1.3622294664382935
1683385920556779000,6.500779052734375,0.10995574295520782,-0.03176499158143997,-1.3084733486175537
1683385920566767600,6.510767578125,0.14782938361167908,-0.06536258012056351,-1.2638801336288452
1683385920576798700,6.520798828125,0.15393804013729095,-0.09957103431224823,-1.218676209449768
1683385920586756600,6.530756591796875,0.1368338167667389,-0.20097467303276062,-1.1484266519546509
1683385920596787700,6.54078759765625,0.12217304855585098,-0.31154128909111023,-1.0543533563613892
1683385920606776300,6.5507763671875,0.10567969083786011,-0.3591887652873993,-0.9755517840385437
1683385920616776700,6.560776611328125,0.08735372871160507,-0.29138273000717163,-0.9474520087242126
1683385920626765300,6.570765380859375,0.08979719132184982,-0.13988813757896423,-0.9492846131324768
1683385920636796200,6.580796142578125,0.10323622822761536,-0.006108652334660292,-0.9547823667526245
1683385920646754300,6.59075439453125,0.10567969083786011,0.05375614017248154,-0.9450085163116455
1683385920656785400,6.600785400390625,0.1062905490398407,0.014049900695681572,-0.9101892113685608
1683385920666773800,6.610773681640625,0.10751228034496307,-0.05742133408784866,-0.8582656979560852
1683385920676774400,6.6207744140625,0.09040805697441101,-0.12950342893600464,-0.7855727076530457
1683385920686763000,6.630762939453125,0.05803219974040985,-0.13927727937698364,-0.7177666425704956
1683385920696796200,6.640796142578125,0.01710422709584236,-0.06536258012056351,-0.6719517707824707
1683385920706752000,6.650751953125,-0.031154127791523933,0.0354301854968071,-0.646906316280365
1683385920716783000,6.660783203125,-0.06230825558304787,0.12278391420841217,-0.616973876953125
1683385920726771500,6.670771484375,-0.06719517707824707,0.16798794269561768,-0.5705481171607971
1683385920736802300,6.68080224609375,-0.0403171069920063,0.11789698898792267,-0.5009095072746277
1683385920746760700,6.6907607421875,0.00733038317412138,-0.025656340643763542,-0.4080579876899719
1683385920756791600,6.70079150390625,0.0507018156349659,-0.2015855312347412,-0.3090978264808655
1683385920766780000,6.71077978515625,0.08857546001672745,-0.375071257352829,-0.21502456068992615
1683385920776782800,6.720782958984375,0.11239920556545258,-0.45692721009254456,-0.14905111491680145
1683385920786769200,6.73076904296875,0.11667526513338089,-0.41661009192466736,-0.1160643994808197
1683385920796802300,6.74080224609375,0.0861319974064827,-0.22663100063800812,-0.1160643994808197
1683385920806758100,6.750758056640625,0.0507018156349659,-0.045204028487205505,-0.14355333149433136
1683385920816791300,6.760791259765625,0.019547687843441963,0.12095131725072861,-0.1667662113904953
1683385920826777600,6.770777587890625,-0.006108652334660292,0.23945917189121246,-0.16920967400074005
1683385920836780300,6.7807802734375,-0.018325956538319588,0.29626965522766113,-0.14233160018920898
1683385920846766800,6.790766845703125,-0.021380282938480377,0.31154128909111023,-0.10018189996480942
1683385920856793900,6.8007939453125,-0.02321287989616394,0.2785545587539673,-0.04948008432984352
1683385920866754800,6.8107548828125,-0.036041051149368286,0.18997909128665924,0.014049900695681572
1683385920876788000,6.8207880859375,-0.04337143152952194,0.11301007121801376,0.05864306539297104
1683385920886774500,6.8307744140625,-0.03176499158143997,0.06108652427792549,0.08185594528913498
1683385920896774700,6.840774658203125,-0.005497787147760391,0.006719517521560192,0.08857546001672745
1683385920906763000,6.850762939453125,0.027488935738801956,-0.018325956538319588,0.08368854224681854
1683385920916796700,6.860796630859375,0.06108652427792549,-0.006719517521560192,0.07269296050071716
1683385920926752300,6.870752197265625,0.07696902006864548,0.01466076634824276,0.06902777403593063
1683385920936786000,6.880785888671875,0.07941248267889023,0.05009094998240471,0.0806342139840126
1683385920946772000,6.89077197265625,0.07269296050071716,0.10018189996480942,0.11423180252313614
1683385920956775400,6.900775390625,0.05742133408784866,0.1258382350206375,0.14844025671482086
1683385920966761500,6.910761474609375,0.04337143152952194,0.13011430203914642,0.16737708449363708
1683385920976792600,6.92079248046875,0.03420845419168472,0.12339477986097336,0.1667662113904953
1683385920986781200,6.93078125,0.031154127791523933,0.09407325088977814,0.14294247329235077
1683385920996781600,6.940781494140625,0.02871066704392433,0.06902777403593063,0.0910189226269722
1683385921006770200,6.950770263671875,0.022602014243602753,0.07208210229873657,0.030543262138962746
1683385921016801300,6.96080126953125,0.00733038317412138,0.06291911751031876,-0.015882495790719986
1683385921026759200,6.97075927734375,-0.00427605677396059,0.019547687843441963,-0.02626720629632473
1683385921036790000,6.9807900390625,-0.004886921960860491,0.001832595793530345,-0.031154127791523933
1683385921046779000,6.99077880859375,-0.0012217304902151227,0.009162978269159794,-0.018936822190880775
1683385921056779000,7.000779052734375,0.006719517521560192,0.007941247895359993,0.0006108652451075613
1683385921066767600,7.010767578125,0.012828170321881771,-0.024434609338641167,0.018325956538319588
1683385921076798700,7.020798828125,0.021991148591041565,-0.05925392732024193,0.03848451003432274
1683385921086756900,7.0307568359375,0.03848451003432274,-0.06414084881544113,0.06352998316287994
1683385921096789800,7.040789794921875,0.04092797264456749,-0.03298672288656235,0.1111774742603302
1683385921106776300,7.0507763671875,0.02687807008624077,-0.01038470957428217,0.16371189057826996
1683385921116779000,7.060779052734375,0.00855211354792118,0.03237585723400116,0.2223549485206604
1683385921126765300,7.070765380859375,-0.006719517521560192,0.06352998316287994,0.2919935882091522
1683385921136796200,7.080796142578125,-0.01710422709584236,0.0659734457731247,0.35185837745666504
1683385921146754300,7.09075439453125,-0.021380282938480377,0.05314527451992035,0.394008070230484
1683385921156785400,7.100785400390625,-0.016493361443281174,0.05375614017248154,0.41233405470848083
1683385921166773800,7.110773681640625,0.0006108652451075613,0.06230825558304787,0.4178318381309509
1683385921176774100,7.120774169921875,0.015271631069481373,0.07330382615327835,0.4349360466003418
1683385921186762800,7.1307626953125,0.010995574295520782,0.0708603709936142,0.46792277693748474
1683385921196793900,7.1407939453125,-0.006108652334660292,0.06352998316287994,0.4996877610683441
1683385921206752000,7.150751953125,-0.013439035043120384,0.09712757170200348,0.5369505286216736
1683385921216782800,7.160782958984375,-0.005497787147760391,0.1411098688840866,0.5913175344467163
1683385921226771500,7.170771484375,0.003054326167330146,0.14782938361167908,0.6713408827781677
1683385921236802300,7.18080224609375,0.00733038317412138,0.11301007121801376,0.7782423496246338
1683385921246760400,7.190760498046875,0.009773843921720982,0.08002334833145142,0.8851437568664551
1683385921256791300,7.200791259765625,0.00366519158706069,0.06352998316287994,0.9932668805122375
1683385921266780000,7.21077978515625,-0.01160643994808197,0.05803219974040985,1.0965031385421753
1683385921276780500,7.220780517578125,-0.03848451003432274,0.08185594528913498,1.1814134120941162
1683385921286769200,7.23076904296875,-0.06536258012056351,0.13255776464939117,1.2376129627227783
1683385921296800000,7.240800048828125,-0.08429940044879913,0.2119702398777008,1.235169529914856
1683385921306758000,7.2507578125,-0.0959058403968811,0.2687807083129883,1.207069754600525
1683385921316789000,7.2607890625,-0.11056660860776901,0.28038713335990906,1.189354658126831
1683385921326777600,7.270777587890625,-0.12828169763088226,0.26511552929878235,1.19607412815094
1683385921336778000,7.280778076171875,-0.14477506279945374,0.07819075137376785,1.2663236856460571
1683385921346766600,7.2907666015625,-0.14905111491680145,0.08918632566928864,1.2864822149276733
1683385921356797700,7.300797607421875,-0.14416420459747314,0.07880161702632904,1.3182471990585327
1683385921366755300,7.31075537109375,-0.1270599663257599,0.08002334833145142,1.3536773920059204
1683385921376786700,7.32078662109375,-0.11178833991289139,0.07330382615327835,1.3976596593856812
1683385921386775000,7.330775146484375,-0.1014036312699318,0.05864306539297104,1.454470157623291
1683385921396775400,7.340775390625,-0.10812314599752426,0.05253441259264946,1.4752395153045654
1683385921406764300,7.350764404296875,-0.13072516024112701,0.059864792972803116,1.4679092168807983
1683385921416795100,7.360795166015625,-0.1667662113904953,0.06169738993048668,1.4605787992477417
1683385921426753000,7.3707529296875,-0.19486601650714874,0.07330382615327835,1.46424400806427
1683385921436784000,7.3807841796875,-0.2076941877603531,0.07269296050071716,1.4856243133544922
1683385921446772500,7.3907724609375,-0.21135938167572021,0.06719517707824707,1.5112806558609009
1683385921456772900,7.40077294921875,-0.2028072625398636,0.07147123664617538,1.5210545063018799
1683385921466761500,7.410761474609375,-0.1765400618314743,0.06352998316287994,1.5332717895507812
1683385921476793000,7.42079296875,-0.12217304855585098,0.04642575979232788,1.5540411472320557
1683385921486781200,7.43078125,-0.06169738993048668,0.031154127791523933,1.5754214525222778
1683385921496782000,7.440781982421875,0.00427605677396059,0.02871066704392433,1.5815300941467285
1683385921506770200,7.450770263671875,0.05375614017248154,0.012828170321881771,1.5723671913146973
1683385921516801500,7.460801513671875,0.10812314599752426,0.01038470957428217,1.5424346923828125
1683385921526759400,7.470759521484375,0.14905111491680145,0.014049900695681572,1.5094480514526367
1683385921536790800,7.480790771484375,0.17531833052635193,0.015882495790719986,1.4660766124725342
1683385921546779000,7.49077880859375,0.16493362188339233,0.009162978269159794,1.4178181886672974
1683385921556779800,7.50077978515625,0.07513642311096191,-0.1918116807937622,1.3145819902420044
1683385921566767600,7.510767578125,-0.09040805697441101,-0.42699480056762695,0.5167919993400574
1683385921576799200,7.52079931640625,0.004886921960860491,0.4050036668777466,-0.1918116807937622
1683385921586756600,7.530756591796875,0.04886921867728233,0.022602014243602753,-0.01771509274840355
1683385921596788200,7.540788330078125,-0.02932153269648552,0.08185594528913498,-0.0354301854968071
1683385921606776300,7.5507763671875,-0.05925392732024193,0.05864306539297104,0.01771509274840355
1683385921616777500,7.560777587890625,-0.03787364438176155,0.03176499158143997,0.04214970022439957
1683385921626765300,7.570765380859375,-0.004886921960860491,0.02015855349600315,0.0354301854968071
1683385921636823300,7.5808232421875,0.019547687843441963,0.012217304669320583,0.05803219974040985
1683385921646754300,7.59075439453125,0.04642575979232788,0.02382374368607998,0.0757472887635231
1683385921656786000,7.600785888671875,0.07757988572120667,0.05375614017248154,0.021991148591041565
1683385921666774000,7.61077392578125,0.09529497474431992,0.04092797264456749,0.01038470957428217
1683385921676775200,7.620775146484375,0.07880161702632904,0.03848451003432274,0.02015855349600315
1683385921686762800,7.6307626953125,0.03420845419168472,0.07024950534105301,0.03726277872920036
1683385921696794400,7.64079443359375,0.00733038317412138,0.060475658625364304,0.0354301854968071
1683385921706752000,7.650751953125,-0.012828170321881771,0.07147123664617538,0.015271631069481373
1683385921716783600,7.66078369140625,-0.033597588539123535,0.07513642311096191,0.00855211354792118
1683385921726771500,7.670771484375,-0.06780604273080826,0.08246681094169617,0.007941247895359993
1683385921736803000,7.680802978515625,-0.09957103431224823,0.06963863968849182,0.009162978269159794
1683385921746760700,7.6907607421875,-0.18020524084568024,0.06108652427792549,0.012828170321881771
1683385921756792300,7.700792236328125,-0.192422553896904,0.04948008432984352,0.012828170321881771
1683385921766780200,7.7107802734375,-0.15393804013729095,0.04214970022439957,0.005497787147760391
1683385921776781300,7.72078125,-0.06291911751031876,0.030543262138962746,0.0024434609804302454
1683385921786769200,7.73076904296875,0.022602014243602753,0.02626720629632473,0
1683385921796800800,7.74080078125,0.024434609338641167,0.03726277872920036,0.0012217304902151227
1683385921806758100,7.750758056640625,0.021380282938480377,0.027488935738801956,-0.0006108652451075613
1683385921816789500,7.76078955078125,0.021991148591041565,0.028099801391363144,0.0012217304902151227
1683385921826777900,7.77077783203125,0.021991148591041565,0.02871066704392433,0
1683385921836778500,7.780778564453125,0.021991148591041565,0.02382374368607998,-0.00366519158706069
1683385921846766800,7.790766845703125,0.02382374368607998,0.015882495790719986,-0.00366519158706069
1683385921856792600,7.80079248046875,0.022602014243602753,0.009162978269159794,-0.00366519158706069
1683385921866754800,7.8107548828125,0.024434609338641167,0.04153883829712868,0.00733038317412138
1683385921876786200,7.8207861328125,0.0959058403968811,0.03420845419168472,0.00733038317412138
1683385921886774500,7.8307744140625,0.3982841372489929,0.028099801391363144,-0.001832595793530345
1683385921896775400,7.840775390625,0.750142514705658,0.02382374368607998,-0.007941247895359993
1683385921906763300,7.85076318359375,0.9706648588180542,0.03481931984424591,-0.007941247895359993
1683385921916795100,7.860795166015625,0.9419541954994202,0.03787364438176155,-0.0012217304902151227
1683385921926752300,7.870752197265625,0.7562511563301086,0.027488935738801956,-0.0024434609804302454
1683385921936784000,7.880783935546875,0.5839871764183044,0.02015855349600315,-0.012828170321881771
1683385921946772000,7.89077197265625,0.5112941861152649,0.021991148591041565,-0.010995574295520782
1683385921956774000,7.90077392578125,0.5051855444908142,-0.0006108652451075613,-0.015271631069481373
1683385921966761500,7.910761474609375,0.5442809462547302,-0.019547687843441963,-0.02626720629632473
1683385921976793000,7.92079296875,0.23945917189121246,-0.018325956538319588,-0.02626720629632473
1683385921986781200,7.93078125,0.018936822190880775,-0.0403171069920063,-0.018325956538319588
1683385921996782000,7.940781982421875,0.021380282938480377,-0.0403171069920063,-0.007941247895359993
1683385922006770200,7.950770263671875,0.021380282938480377,-0.031154127791523933,-0.007941247895359993
1683385922016801800,7.9608017578125,0.021380282938480377,-0.059864792972803116,-0.014049900695681572
1683385922026759400,7.970759521484375,0.018325956538319588,-0.1411098688840866,-0.02321287989616394
1683385922036790800,7.980790771484375,0.01160643994808197,-0.2730567753314972,-0.036041051149368286
1683385922046779000,7.99077880859375,-0.00855211354792118,-0.33108896017074585,-0.003054326167330146
1683385922056779800,8.00077978515625,-0.10323622822761536,-0.4098905920982361,-0.00855211354792118
1683385922066767600,8.010767578125,-0.20402899384498596,-0.6114761233329773,-0.013439035043120384
1683385922076799200,8.02079931640625,-0.23640485107898712,-0.8533787727355957,-0.012828170321881771
1683385922086756600,8.030756591796875,-0.1814269721508026,-1.0054842233657837,-0.014049900695681572
1683385922096788200,8.040788330078126,-0.06780604273080826,-0.96883225440979,-0.00733038317412138
1683385922106776300,8.0507763671875,0.007941247895359993,-0.8222246170043945,-0.003054326167330146
1683385922116777200,8.060777099609375,0.009162978269159794,-0.720820963382721,-0.004886921960860491
1683385922126765600,8.070765625,0.007941247895359993,-0.7018841505050659,-0.0024434609804302454
1683385922136796700,8.080796630859375,0.006719517521560192,-0.7458664774894714,0
1683385922146754300,8.09075439453125,-0.01038470957428217,-0.7751879692077637,-0.001832595793530345
1683385922156786000,8.100785888671876,-0.05375614017248154,-0.7458664774894714,-0.007941247895359993
1683385922166773800,8.110773681640625,-0.09773843735456467,-0.740368664264679,-0.010995574295520782
1683385922176775000,8.12077490234375,-0.13011430203914642,-0.8210029006004333,-0.014049900695681572
1683385922186763000,8.130762939453126,-0.15882496535778046,-1.016479730606079,-0.02015855349600315
1683385922196794000,8.140794189453125,-0.20463985204696655,-1.3426817655563354,-0.02871066704392433
1683385922206751700,8.150751708984375,-0.25595253705978394,-1.8020524978637695,-0.029932396486401558
1683385922216781800,8.16078173828125,-0.29138273000717163,-2.339613914489746,-0.04398229718208313
1683385922226771500,8.170771484375,-0.2877175211906433,-2.9571986198425293,-0.042760565876960754
1683385922236802800,8.180802734375,-0.23151792585849762,-3.2559118270874023,-0.030543262138962746
1683385922246760400,8.190760498046876,-0.06475171446800232,-3.177110195159912,-0.003054326167330146
1683385922256790800,8.200790771484375,-0.007941247895359993,-2.8594601154327393,0.014049900695681572
1683385922266780200,8.2107802734375,-0.036041051149368286,-2.488054037094116,-0.001832595793530345
1683385922276779800,8.22077978515625,-0.16737708449363708,-1.9755382537841797,-0.04948008432984352
1683385922286769000,8.230768798828125,-0.2889392673969269,-1.5900822877883911,-0.10384709388017654
1683385922296801500,8.240801513671874,-0.4184426963329315,-1.3151928186416626,-0.1569923609495163
1683385922306758000,8.2507578125,-0.5149593949317932,-1.1362093687057495,-0.2028072625398636
1683385922316788200,8.260788330078125,-0.5613851547241211,-1.0464121103286743,-0.2278527319431305
1683385922326777600,8.270777587890626,-0.5503895878791809,-1.0677924156188965,-0.23029619455337524
1683385922336777200,8.280777099609375,-0.46670106053352356,-1.1838568449020386,-0.20402899384498596
1683385922346766300,8.290766357421875,-0.3084869384765625,-1.3744467496871948,-0.15393804013729095
1683385922356796700,8.300796630859375,-0.1368338167667389,-1.5387696027755737,-0.11178833991289139
1683385922366755300,8.31075537109375,0.042760565876960754,-1.7544050216674805,-0.016493361443281174
1683385922376786000,8.320785888671875,0.07819075137376785,-1.9327776432037354,0.01710422709584236
1683385922386775000,8.330775146484376,0.10690141469240189,-2.0476202964782715,0.059864792972803116
1683385922396777000,8.34077685546875,0.12461651116609573,-2.0806069374084473,0.11484266817569733
1683385922406764000,8.350763916015625,0.0910189226269722,-2.020742177963257,0.10506882518529892
1683385922416796400,8.36079638671875,0.01160643994808197,-1.9315558671951294,0.048258353024721146
1683385922426753300,8.370753173828126,-0.060475658625364304,-1.7708983421325684,-0.010995574295520782
1683385922436785400,8.380785400390625,-0.07696902006864548,-1.5900822877883911,-0.03420845419168472
1683385922446772500,8.3907724609375,-0.0507018156349659,-1.445918083190918,-0.027488935738801956
1683385922456774400,8.4007744140625,-0.022602014243602753,-1.359786033630371,-0.006719517521560192
1683385922466761500,8.410761474609375,-0.03298672288656235,-1.2205088138580322,-0.025656340643763542
1683385922476794000,8.420794189453124,-0.059864792972803116,-1.0433578491210938,-0.05925392732024193
1683385922486781200,8.43078125,-0.06719517707824707,-0.9272934198379517,-0.06414084881544113
1683385922496783000,8.440783203125,-0.059864792972803116,-0.9193521738052368,-0.04459316283464432
1683385922506770200,8.450770263671876,-0.04703662544488907,-0.9932668805122375,-0.02015855349600315
1683385922516802600,8.460802490234375,-0.02321287989616394,-1.1184942722320557,0.010995574295520782
1683385922526759200,8.47075927734375,0.006108652334660292,-1.216843605041504,0.005497787147760391
1683385922536791600,8.48079150390625,0.03298672288656235,-1.263269305229187,0.02932153269648552
1683385922546779000,8.49077880859375,0.0507018156349659,-1.141707181930542,0.045204028487205505
1683385922556780500,8.500780517578125,0.10384709388017654,-0.8998045325279236,0.08796459436416626
1683385922566767600,8.510767578125,0.18081611394882202,-0.5283984541893005,0.15332718193531036
1683385922576800000,8.520800048828125,0.19120082259178162,-0.36713001132011414,0.16249015927314758
1683385922586756600,8.530756591796875,0.1771509200334549,-0.2779437005519867,0.1472185254096985
1683385922596789200,8.540789306640624,0.10018189996480942,-0.33658674359321594,0.07819075137376785
1683385922606776300,8.5507763671875,0.01771509274840355,-0.46303585171699524,0.003054326167330146
1683385922616778200,8.5607783203125,0.013439035043120384,-0.5247332453727722,-0.003054326167330146
1683385922626765300,8.570765380859376,0.004886921960860491,-0.46303585171699524,-0.010995574295520782
1683385922636797700,8.580797607421875,0.021380282938480377,-0.24068090319633484,0.001832595793530345
1683385922646754300,8.59075439453125,0.12950342893600464,0.01160643994808197,0.1014036312699318
1683385922656787000,8.600786865234374,0.2272418737411499,0.20891591906547546,0.19120082259178162
1683385922666774000,8.61077392578125,0.26572638750076294,0.3433062732219696,0.22846360504627228
1683385922676775700,8.620775634765625,0.25045475363731384,0.30970868468284607,0.21441370248794556
1683385922686762800,8.6307626953125,0.19058994948863983,0.10201449692249298,0.15821409225463867
1683385922696795400,8.64079541015625,0.07208210229873657,-0.30482175946235657,0.05314527451992035
1683385922706752000,8.650751953125,0.051312681287527084,-0.6304129362106323,0.0403171069920063
1683385922716784400,8.660784423828124,0.08185594528913498,-0.921795666217804,0.07452555745840073
1683385922726771500,8.670771484375,0.1014036312699318,-1.1074986457824707,0.09651670604944229
1683385922736803800,8.680803955078124,0.09040805697441101,-1.081842303276062,0.08674286305904388
1683385922746760700,8.6907607421875,0.059864792972803116,-0.817948579788208,0.05009094998240471
1683385922756792800,8.700792724609375,0.03420845419168472,-0.4196644127368927,0.018936822190880775
1683385922766780000,8.71077978515625,0.05009094998240471,-0.09957103431224823,0.03298672288656235
1683385922776781800,8.72078173828125,0.07513642311096191,0.14477506279945374,0.05619960278272629
1683385922786769200,8.73076904296875,0.09346238523721695,0.3536909818649292,0.07024950534105301
1683385922796801500,8.740801513671874,0.1215621829032898,0.46547931432724,0.09224065393209457
1683385922806758100,8.750758056640626,0.1472185254096985,0.4056145250797272,0.1215621829032898
1683385922816790500,8.76079052734375,0.11484266817569733,0.33108896017074585,0.08918632566928864
1683385922826777900,8.77077783203125,0.07024950534105301,0.2968805134296417,0.0403171069920063
1683385922836779500,8.780779541015624,0.02382374368607998,0.2840523421764374,-0.00366519158706069
1683385922846766800,8.790766845703125,0.02321287989616394,0.2822197377681732,-0.0024434609804302454
1683385922856793000,8.80079296875,0.024434609338641167,0.19120082259178162,-0.003054326167330146
1683385922866754800,8.8107548828125,0.02076941914856434,-0.04642575979232788,0
1683385922876787000,8.820786865234375,0.025045474991202354,-0.19486601650714874,0.003054326167330146
1683385922886774500,8.8307744140625,0.04092797264456749,-0.31154128909111023,0.02321287989616394
1683385922896776200,8.840776123046876,0.025045474991202354,-0.2785545587539673,0.005497787147760391
1683385922906763500,8.850763427734375,0.018936822190880775,-0.17043140530586243,-0.001832595793530345
1683385922916795600,8.860795654296876,0.019547687843441963,-0.04092797264456749,-0.0024434609804302454
1683385922926752300,8.870752197265626,0.02076941914856434,0.04581489413976669,-0.001832595793530345
1683385922936785000,8.880784912109375,0.02076941914856434,0.0861319974064827,-0.001832595793530345
1683385922946772000,8.89077197265625,0.02015855349600315,0.10812314599752426,-0.0024434609804302454
1683385922956774400,8.9007744140625,0.021380282938480377,0.13377949595451355,-0.0024434609804302454
1683385922966761500,8.910761474609375,0.022602014243602753,0.17348572611808777,-0.0024434609804302454
1683385922976794000,8.920794189453124,0.022602014243602753,0.2076941877603531,-0.003054326167330146
1683385922986781200,8.93078125,0.02321287989616394,0.21930062770843506,-0.00366519158706069
1683385922996783000,8.940783203125,0.02321287989616394,0.2070833146572113,-0.004886921960860491
1683385923006770200,8.950770263671876,0.022602014243602753,0.1765400618314743,-0.00366519158706069
1683385923016802600,8.960802490234375,0.022602014243602753,0.1264491081237793,-0.003054326167330146
1683385923026759400,8.970759521484375,0.021991148591041565,0.09162978827953339,-0.003054326167330146
1683385923036791800,8.980791748046874,0.022602014243602753,0.09468411654233932,-0.003054326167330146
1683385923046779000,8.99077880859375,0.022602014243602753,0.12278391420841217,-0.0024434609804302454
1683385923056780500,9.000780517578125,0.021991148591041565,0.1368338167667389,-0.0024434609804302454
1683385923066767600,9.010767578125,0.022602014243602753,0.14294247329235077,-0.001832595793530345
1683385923076800300,9.02080029296875,0.022602014243602753,0.1411098688840866,-0.003054326167330146
1683385923086756900,9.0307568359375,0.022602014243602753,0.12828169763088226,-0.001832595793530345
1683385923096789000,9.0407890625,0.022602014243602753,0.1111774742603302,-0.0012217304902151227
1683385923106776300,9.0507763671875,0.022602014243602753,0.10567969083786011,-0.0006108652451075613
1683385923116778200,9.0607783203125,0.022602014243602753,0.10323622822761536,-0.003054326167330146
1683385923126765300,9.070765380859376,0.021380282938480377,0.08918632566928864,-0.00427605677396059
1683385923136797700,9.080797607421875,0.02076941914856434,0.0806342139840126,-0.00366519158706069
1683385923146754300,9.09075439453125,0.021380282938480377,0.06841690838336945,-0.003054326167330146
1683385923156787000,9.100786865234374,0.021380282938480377,0.02687807008624077,-0.0024434609804302454
1683385923166774000,9.11077392578125,0.02076941914856434,0.00855211354792118,-0.0024434609804302454
1683385923176775700,9.120775634765625,0.02076941914856434,0.019547687843441963,-0.003054326167330146
1683385923186762800,9.1307626953125,0.021380282938480377,0.05192354694008827,-0.0024434609804302454
1683385923196795100,9.140795166015625,0.022602014243602753,0.07330382615327835,-0.0024434609804302454
1683385923206752000,9.150751953125,0.02076941914856434,0.08979719132184982,-0.0024434609804302454
1683385923216784400,9.160784423828124,0.021991148591041565,0.09834930300712585,-0.0024434609804302454
1683385923226771500,9.170771484375,0.021380282938480377,0.09834930300712585,-0.001832595793530345
1683385923236803800,9.180803955078124,0.021991148591041565,0.09468411654233932,-0.001832595793530345
1683385923246760700,9.1907607421875,0.02076941914856434,0.0910189226269722,-0.0024434609804302454
1683385923256792600,9.20079248046875,0.021991148591041565,0.07819075137376785,-0.0012217304902151227
1683385923266780200,9.2107802734375,0.02076941914856434,0.05619960278272629,-0.001832595793530345
1683385923276781800,9.22078173828125,0.02015855349600315,0.03726277872920036,-0.0012217304902151227
1683385923286769000,9.230768798828125,0.021991148591041565,0.045204028487205505,-0.001832595793530345
1683385923296801500,9.240801513671874,0.02321287989616394,0.08429940044879913,-0.00366519158706069
1683385923306758000,9.2507578125,0.024434609338641167,0.1319468915462494,-0.003054326167330146
1683385923316790500,9.26079052734375,0.02382374368607998,0.17898350954055786,-0.00427605677396059
1683385923326777600,9.270777587890626,0.025045474991202354,0.2626720666885376,-0.00366519158706069
1683385923336779500,9.280779541015624,0.02626720629632473,0.35246923565864563,-0.00366519158706069
1683385923346766300,9.290766357421875,0.02687807008624077,0.47708576917648315,-0.00427605677396059
1683385923356799000,9.300799072265624,0.021991148591041565,0.6230825781822205,-0.010995574295520782
1683385923366755300,9.31075537109375,0.00855211354792118,0.788627028465271,-0.02626720629632473
1683385923376788000,9.3207880859375,0.018325956538319588,0.9205739498138428,-0.021380282938480377
1683385923386775000,9.330775146484376,0.021991148591041565,1.0445796251296997,-0.01771509274840355
1683385923396777000,9.34077685546875,0.018325956538319588,1.1771373748779297,-0.02382374368607998
1683385923406764000,9.350763916015625,0.015271631069481373,1.2651019096374512,-0.02932153269648552
1683385923416796700,9.360796630859374,0.028099801391363144,1.2577714920043945,-0.014049900695681572
1683385923426753000,9.3707529296875,0.04092797264456749,1.236391305923462,-0.006108652334660292
1683385923436785400,9.380785400390625,0.042760565876960754,1.2516628503799438,-0.005497787147760391
1683385923446772700,9.390772705078126,0.04153883829712868,1.29381263256073,-0.004886921960860491
1683385923456774100,9.400774169921876,0.04459316283464432,1.4214833974838257,-0.005497787147760391
1683385923466761500,9.410761474609375,0.04581489413976669,1.5234979391098022,-0.006719517521560192
1683385923476794000,9.420794189453124,0.04703662544488907,1.6047430038452148,-0.005497787147760391
1683385923486781200,9.43078125,0.04886921867728233,1.6884315013885498,-0.005497787147760391
1683385923496783000,9.440783203125,0.0507018156349659,1.80510675907135,-0.005497787147760391
1683385923506770400,9.4507705078125,0.05192354694008827,1.9352210760116577,-0.00733038317412138
1683385923516802800,9.460802734375,0.05314527451992035,2.0091357231140137,-0.009162978269159794
1683385923526759200,9.47075927734375,0.05009094998240471,2.021353006362915,-0.010995574295520782
1683385923536789500,9.48078955078125,0.04886921867728233,1.9798142910003662,-0.009773843921720982
1683385923546778600,9.490778564453125,0.04703662544488907,1.8741345405578613,-0.009773843921720982
1683385923556778500,9.500778564453125,0.04764748737215996,1.7440202236175537,-0.006108652334660292
1683385923566767600,9.510767578125,0.04948008432984352,1.6798794269561768,-0.006108652334660292
1683385923576798200,9.520798095703125,0.04948008432984352,1.6603317260742188,-0.007941247895359993
1683385923586756900,9.5307568359375,0.04703662544488907,1.607797384262085,-0.005497787147760391
1683385923596787000,9.540786865234375,0.04337143152952194,1.4996742010116577,-0.004886921960860491
1683385923606776300,9.5507763671875,0.04153883829712868,1.3903292417526245,-0.006719517521560192
1683385923616776000,9.56077587890625,0.04092797264456749,1.3029755353927612,-0.006108652334660292
1683385923626765600,9.570765625,0.03726277872920036,1.2553280591964722,-0.006719517521560192
1683385923636824000,9.580823974609375,0.03726277872920036,1.2974777221679688,-0.006719517521560192
1683385923646754300,9.59075439453125,0.045204028487205505,1.4410310983657837,-0.006108652334660292
1683385923656784600,9.60078466796875,0.04886921867728233,1.8057177066802979,-0.01038470957428217
1683385923666774000,9.61077392578125,0.042760565876960754,2.0916025638580322,-0.012217304669320583
1683385923676774000,9.62077392578125,0.00733038317412138,2.1374175548553467,-0.02015855349600315
1683385923686763000,9.630762939453126,-0.048258353024721146,2.090380907058716,-0.036041051149368286
1683385923696793300,9.64079345703125,-0.10751228034496307,2.023796558380127,-0.048258353024721146
1683385923706752000,9.650751953125,-0.1319468915462494,1.9370536804199219,-0.04703662544488907
1683385923716783400,9.660783447265626,-0.09834930300712585,1.8637498617172241,-0.039706241339445114
1683385923726771500,9.670771484375,-0.018325956538319588,1.7788395881652832,-0.019547687843441963
1683385923736802800,9.680802734375,-0.006719517521560192,1.6572774648666382,-0.015271631069481373
1683385923746760700,9.6907607421875,-0.0024434609804302454,1.6395623683929443,-0.01160643994808197
1683385923756792000,9.7007919921875,0.015271631069481373,1.670716404914856,-0.00855211354792118
1683385923766780000,9.71077978515625,0.014049900695681572,1.6395623683929443,-0.006719517521560192
1683385923776781000,9.720781005859376,-0.02015855349600315,1.6022995710372925,-0.01038470957428217
1683385923786769200,9.73076904296875,-0.10323622822761536,1.5766432285308838,-0.015271631069481373
1683385923796799200,9.74079931640625,-0.2174680233001709,1.566258430480957,-0.014049900695681572
1683385923806758100,9.750758056640626,-0.33536502718925476,1.5974125862121582,-0.021380282938480377
1683385923816789500,9.76078955078125,-0.4056145250797272,1.665218710899353,-0.010995574295520782
1683385923826777600,9.770777587890626,-0.41599923372268677,1.72935950756073,0.006719517521560192
1683385923836778800,9.78077880859375,-0.33597588539123535,1.5833626985549927,0.03726277872920036
1683385923846766800,9.790766845703125,-0.16859880089759827,0.19364428520202637,0.025656340643763542
1683385923856792300,9.800792236328125,0.02871066704392433,0.05009094998240471,-0.005497787147760391
1683385923866754800,9.8107548828125,0.025045474991202354,0.03420845419168472,-0.00427605677396059
1683385923876786200,9.8207861328125,0.025045474991202354,0.03787364438176155,0.001832595793530345
1683385923886774500,9.8307744140625,0.028099801391363144,0.048258353024721146,0.00733038317412138
1683385923896775400,9.840775390625,0.036651913076639175,0.03787364438176155,0.00366519158706069
1683385923906763300,9.85076318359375,0.02626720629632473,0.039095375686883926,0.00366519158706069
1683385923916795000,9.860794921875,0.021991148591041565,0.03420845419168472,0.006719517521560192
1683385923926752300,9.870752197265626,0.02321287989616394,0.039095375686883926,0.00855211354792118
1683385923936784000,9.880783935546875,0.021991148591041565,0.04153883829712868,0.005497787147760391
1683385923946772000,9.89077197265625,0.021991148591041565,0.0403171069920063,0.006719517521560192
1683385923956774000,9.90077392578125,0.021380282938480377,0.028099801391363144,0.00427605677396059
1683385923966761500,9.910761474609375,0.02321287989616394,0.024434609338641167,0
1683385923976792300,9.920792236328126,0.021991148591041565,0.025656340643763542,-0.0024434609804302454
1683385923986781200,9.93078125,0.024434609338641167,0.02321287989616394,-0.0024434609804302454
1683385923996782000,9.940781982421875,0.022602014243602753,0.02015855349600315,0
1683385924006770200,9.950770263671876,0.02321287989616394,0.021991148591041565,-0.001832595793530345
1683385924016801800,9.9608017578125,0.02321287989616394,0.02382374368607998,-0.003054326167330146
1683385924026759200,9.97075927734375,0.022602014243602753,0.022602014243602753,-0.003054326167330146
1683385924036790800,9.980790771484376,0.022602014243602753,0.021991148591041565,-0.00427605677396059
1683385924046779000,9.99077880859375,0.022602014243602753,0.02321287989616394,-0.00427605677396059
1683385924056780000,10.000780029296875,0.02382374368607998,0.021991148591041565,-0.0012217304902151227
1683385924066767600,10.010767578125,0.02321287989616394,0.02015855349600315,-0.0024434609804302454
1683385924076799500,10.020799560546875,0.021991148591041565,0.02076941914856434,-0.001832595793530345
1683385924086756600,10.030756591796875,0.021991148591041565,0.021380282938480377,-0.00366519158706069
1683385924096788700,10.040788818359376,0.021991148591041565,0.021380282938480377,-0.0024434609804302454
1683385924106776300,10.0507763671875,0.022602014243602753,0.021380282938480377,-0.003054326167330146
1683385924116777500,10.060777587890625,0.021991148591041565,0.01771509274840355,-0.005497787147760391
1683385924126765300,10.070765380859376,0.021380282938480377,0.016493361443281174,-0.00427605677396059
1683385924136797000,10.080796875,0.021991148591041565,0.01710422709584236,-0.004886921960860491
1683385924146754300,10.09075439453125,0.021380282938480377,0.019547687843441963,-0.004886921960860491
1683385924156786000,10.100785888671876,0.021991148591041565,0.021991148591041565,-0.0024434609804302454
1683385924166774000,10.11077392578125,0.021380282938480377,0.02076941914856434,-0.00366519158706069
1683385924176775200,10.120775146484375,0.022602014243602753,0.02382374368607998,-0.0024434609804302454
1683385924186762800,10.1307626953125,0.021991148591041565,0.02382374368607998,-0.0024434609804302454
1683385924196794000,10.140794189453125,0.021991148591041565,0.021380282938480377,-0.003054326167330146
1683385924206751700,10.150751708984375,0.02382374368607998,0.018325956538319588,-0.0024434609804302454
1683385924216783400,10.160783447265626,0.022602014243602753,0.018936822190880775,-0.004886921960860491
1683385924226771500,10.170771484375,0.021991148591041565,0.02015855349600315,-0.00427605677396059
1683385924236803000,10.180802978515626,0.021991148591041565,0.01771509274840355,-0.003054326167330146
1683385924246760400,10.190760498046876,0.022602014243602753,0.019547687843441963,-0.0024434609804302454
1683385924256792000,10.2007919921875,0.022602014243602753,0.021991148591041565,-0.00366519158706069
1683385924266780000,10.21077978515625,0.021991148591041565,0.02321287989616394,-0.0024434609804302454
1683385924276781300,10.22078125,0.02321287989616394,0.022602014243602753,-0.0006108652451075613
1683385924286769000,10.230768798828125,0.021991148591041565,0.02321287989616394,-0.0024434609804302454
1683385924296800800,10.24080078125,0.021991148591041565,0.025656340643763542,-0.003054326167330146
1683385924306758000,10.2507578125,0.022602014243602753,0.030543262138962746,0.0006108652451075613
1683385924316789500,10.26078955078125,0.021380282938480377,0.022602014243602753,-0.0012217304902151227
1683385924326777600,10.270777587890626,0.022602014243602753,0.022602014243602753,-0.0024434609804302454
1683385924336778500,10.280778564453126,0.021991148591041565,0.022602014243602753,-0.0024434609804302454
1683385924346766600,10.2907666015625,0.022602014243602753,0.021380282938480377,-0.0024434609804302454
1683385924356798500,10.300798583984376,0.022602014243602753,0.02076941914856434,-0.0024434609804302454
1683385924366755300,10.31075537109375,0.02382374368607998,0.021991148591041565,-0.001832595793530345
1683385924376787500,10.320787353515625,0.02321287989616394,0.021991148591041565,-0.001832595793530345
1683385924386775000,10.330775146484376,0.02321287989616394,0.025045474991202354,0
1683385924396776000,10.34077587890625,0.02321287989616394,0.01771509274840355,-0.0024434609804302454
1683385924406764300,10.350764404296875,0.02321287989616394,0.02076941914856434,-0.0024434609804302454
1683385924416795600,10.360795654296876,0.02321287989616394,0.025045474991202354,-0.0006108652451075613
1683385924426753000,10.3707529296875,0.02321287989616394,0.027488935738801956,0.0012217304902151227
1683385924436784600,10.38078466796875,0.02321287989616394,0.024434609338641167,0.0006108652451075613
1683385924446772500,10.3907724609375,0.021991148591041565,0.025045474991202354,-0.0006108652451075613
1683385924456773600,10.400773681640626,0.021991148591041565,0.024434609338641167,-0.0006108652451075613
1683385924466761700,10.41076171875,0.021380282938480377,0.02321287989616394,-0.001832595793530345
1683385924476793600,10.420793701171876,0.02321287989616394,0.022602014243602753,-0.001832595793530345
1683385924486781200,10.43078125,0.02382374368607998,0.02321287989616394,-0.001832595793530345
1683385924496782600,10.440782470703125,0.02321287989616394,0.022602014243602753,-0.0012217304902151227
1683385924506770200,10.450770263671876,0.02382374368607998,0.02076941914856434,-0.001832595793530345
1683385924516802000,10.460802001953125,0.021991148591041565,0.021380282938480377,-0.001832595793530345
1683385924526759400,10.470759521484375,0.021991148591041565,0.021380282938480377,-0.0012217304902151227
1683385924536790800,10.480790771484376,0.02321287989616394,0.021380282938480377,-0.001832595793530345
1683385924546778600,10.490778564453125,0.021991148591041565,0.021991148591041565,-0.001832595793530345
1683385924556779800,10.50077978515625,0.022602014243602753,0.021380282938480377,-0.001832595793530345
1683385924566767600,10.510767578125,0.022602014243602753,0.021991148591041565,-0.001832595793530345
1683385924576799700,10.5207998046875,0.022602014243602753,0.02076941914856434,-0.0024434609804302454
1683385924586756600,10.530756591796875,0.022602014243602753,0.02076941914856434,-0.001832595793530345
1683385924596788500,10.54078857421875,0.022602014243602753,0.021991148591041565,-0.0024434609804302454
1683385924606776300,10.5507763671875,0.021991148591041565,0.022602014243602753,-0.00366519158706069
1683385924616777500,10.560777587890625,0.022602014243602753,0.022602014243602753,-0.001832595793530345
1683385924626765300,10.570765380859376,0.022602014243602753,0.021380282938480377,-0.0012217304902151227
1683385924636797000,10.580796875,0.022602014243602753,0.021991148591041565,-0.001832595793530345
1683385924646754600,10.590754638671875,0.02321287989616394,0.021991148591041565,-0.0012217304902151227
1683385924656786200,10.6007861328125,0.022602014243602753,0.02015855349600315,-0.0024434609804302454
1683385924666774000,10.61077392578125,0.022602014243602753,0.02015855349600315,-0.0012217304902151227
1683385924676775200,10.620775146484375,0.021991148591041565,0.021380282938480377,-0.001832595793530345
1683385924686762800,10.6307626953125,0.02321287989616394,0.02076941914856434,-0.0012217304902151227
1683385924696795000,10.640794921875,0.02321287989616394,0.019547687843441963,-0.0024434609804302454
1683385924706752000,10.650751953125,0.02321287989616394,0.021380282938480377,-0.001832595793530345
1683385924716783600,10.66078369140625,0.02321287989616394,0.021991148591041565,-0.001832595793530345
1683385924726771500,10.670771484375,0.02321287989616394,0.021991148591041565,-0.001832595793530345
1683385924736803300,10.68080322265625,0.021991148591041565,0.021991148591041565,-0.0012217304902151227
1683385924746760700,10.6907607421875,0.021380282938480377,0.021991148591041565,-0.003054326167330146
1683385924756792300,10.700792236328125,0.02321287989616394,0.021991148591041565,-0.0024434609804302454
1683385924766780200,10.7107802734375,0.022602014243602753,0.021380282938480377,-0.001832595793530345
1683385924776781300,10.72078125,0.022602014243602753,0.021380282938480377,-0.0012217304902151227
1683385924786769200,10.73076904296875,0.022602014243602753,0.02076941914856434,0
1683385924796801000,10.740801025390626,0.021991148591041565,0.021380282938480377,-0.0012217304902151227
1683385924806758100,10.750758056640626,0.021991148591041565,0.02076941914856434,-0.0012217304902151227
1683385924816790000,10.7607900390625,0.021380282938480377,0.02015855349600315,-0.0012217304902151227
1683385924826777900,10.77077783203125,0.022602014243602753,0.02015855349600315,-0.0006108652451075613
1683385924836778800,10.78077880859375,0.022602014243602753,0.019547687843441963,-0.0024434609804302454
1683385924846766800,10.790766845703125,0.02321287989616394,0.02076941914856434,-0.003054326167330146
1683385924856792600,10.80079248046875,0.022602014243602753,0.02015855349600315,-0.0006108652451075613
1683385924866754800,10.8107548828125,0.02321287989616394,0.02015855349600315,-0.0024434609804302454
1683385924876786400,10.820786376953125,0.022602014243602753,0.02076941914856434,-0.0024434609804302454
1683385924886774500,10.8307744140625,0.02321287989616394,0.02015855349600315,-0.001832595793530345
1683385924896775700,10.840775634765626,0.022602014243602753,0.019547687843441963,-0.0024434609804302454
1683385924906763300,10.85076318359375,0.02321287989616394,0.02076941914856434,-0.001832595793530345
1683385924916795100,10.860795166015626,0.02321287989616394,0.021380282938480377,-0.0024434609804302454
1683385924926752300,10.870752197265626,0.022602014243602753,0.022602014243602753,-0.0024434609804302454
1683385924936784000,10.880783935546875,0.022602014243602753,0.02076941914856434,-0.0024434609804302454
1683385924946772000,10.89077197265625,0.022602014243602753,0.021380282938480377,-0.0024434609804302454
1683385924956774000,10.90077392578125,0.022602014243602753,0.021991148591041565,-0.0012217304902151227
1683385924966761500,10.910761474609375,0.02321287989616394,0.021380282938480377,-0.0024434609804302454
1683385924976793300,10.92079345703125,0.02321287989616394,0.02076941914856434,-0.001832595793530345
1683385924986781200,10.93078125,0.021991148591041565,0.02015855349600315,-0.0012217304902151227
1683385924996782300,10.9407822265625,0.022602014243602753,0.021991148591041565,-0.001832595793530345
1683385925006770200,10.950770263671876,0.02321287989616394,0.02076941914856434,-0.0012217304902151227
1683385925016801800,10.9608017578125,0.021991148591041565,0.02076941914856434,-0.0006108652451075613
1683385925026759200,10.97075927734375,0.02321287989616394,0.021380282938480377,-0.001832595793530345
1683385925036791000,10.980791015625,0.02321287989616394,0.021380282938480377,-0.001832595793530345
1683385925046779000,10.99077880859375,0.02382374368607998,0.02015855349600315,-0.0012217304902151227
1683385925056780000,11.000780029296875,0.02321287989616394,0.02076941914856434,-0.0012217304902151227
1683385925066767600,11.010767578125,0.021991148591041565,0.021380282938480377,-0.001832595793530345
1683385925076799700,11.0207998046875,0.022602014243602753,0.02076941914856434,-0.0024434609804302454
1683385925086756600,11.030756591796875,0.022602014243602753,0.02015855349600315,-0.001832595793530345
1683385925096788700,11.040788818359376,0.02321287989616394,0.02015855349600315,-0.001832595793530345
1683385925106776300,11.0507763671875,0.02321287989616394,0.02076941914856434,-0.0012217304902151227
1683385925116777500,11.060777587890625,0.022602014243602753,0.02015855349600315,-0.003054326167330146
1683385925126765600,11.070765625,0.02382374368607998,0.022602014243602753,-0.0024434609804302454
1683385925136797000,11.080796875,0.022602014243602753,0.021380282938480377,-0.0012217304902151227
1683385925146754300,11.09075439453125,0.022602014243602753,0.021991148591041565,-0.001832595793530345
1683385925156800000,11.100800048828125,0.022602014243602753,0.021380282938480377,-0.001832595793530345
1683385925166773800,11.110773681640625,0.021991148591041565,0.021380282938480377,-0.0012217304902151227
1683385925176769500,11.12076953125,0.022602014243602753,0.02015855349600315,-0.003054326167330146
1683385925186763000,11.130762939453126,0.02321287989616394,0.022602014243602753,-0.001832595793530345
1683385925196789200,11.140789306640626,0.02321287989616394,0.02076941914856434,-0.003054326167330146
1683385925206752000,11.150751953125,0.02321287989616394,0.021380282938480377,-0.0024434609804302454
1683385925216778200,11.1607783203125,0.02321287989616394,0.03176499158143997,0.004886921960860491
1683385925226771500,11.170771484375,0.022602014243602753,0.02321287989616394,0.0006108652451075613
1683385925236797700,11.180797607421875,0.02321287989616394,0.02687807008624077,-0.00366519158706069
1683385925246760700,11.1907607421875,0.022602014243602753,0.027488935738801956,-0.00366519158706069
1683385925256792000,11.2007919921875,0.02321287989616394,0.019547687843441963,-0.00366519158706069
1683385925266780000,11.21077978515625,0.021991148591041565,0.018325956538319588,-0.001832595793530345
1683385925276781300,11.22078125,0.022602014243602753,0.02015855349600315,-0.0024434609804302454
