time,seconds_elapsed,z,y,x
1683385914206056700,0.150056640625,9.837775230407715,-0.11252748221158981,0.026336219161748886
1683385914216616400,0.160616455078125,9.883264541625977,-0.1149216815829277,0.026336219161748886
1683385914226626300,0.170626220703125,9.792284965515137,-0.1173158809542656,0.026336219161748886
1683385914236636000,0.180635986328125,9.81143856048584,-0.1149216815829277,0.026336219161748886
1683385914246615300,0.190615234375,9.849745750427246,-0.12449848651885986,0.040701430290937424
1683385914256625200,0.200625244140625,9.813833236694336,-0.09816227108240128,0.038307227194309235
1683385914266634800,0.210634765625,9.787496566772461,-0.10295066982507706,0.023942016065120697
1683385914276614100,0.2206142578125,9.837775230407715,-0.10773907601833344,0.0454898327589035
1683385914286624000,0.2306240234375,9.86889934539795,-0.11252748221158981,0.035913024097681046
1683385914296633600,0.240633544921875,9.818621635437012,-0.09576806426048279,0.023942016065120697
1683385914306613000,0.250613037109375,9.794678688049316,-0.11971008777618408,0.026336219161748886
1683385914316622600,0.26062255859375,9.813833236694336,-0.1173158809542656,0.011971008032560349
1683385914326632400,0.270632568359375,9.832986831665039,-0.12689268589019775,0.021547814831137657
1683385914336611800,0.28061181640625,9.81143856048584,-0.11013327538967133,0.035913024097681046
1683385914346621400,0.290621337890625,9.792284965515137,-0.11971008777618408,0.026336219161748886
1683385914356631000,0.300631103515625,9.823410034179688,-0.1149216815829277,0.021547814831137657
1683385914366610400,0.3106103515625,9.818621635437012,-0.1173158809542656,0.038307227194309235
1683385914376620300,0.320620361328125,9.785101890563965,-0.0933738648891449,0.038307227194309235
1683385914386630100,0.330630126953125,9.823410034179688,-0.08858546614646912,0.040701430290937424
1683385914396609300,0.340609375,9.823410034179688,-0.10055647045373917,0.028730420395731926
1683385914406619100,0.350619140625,9.804255485534668,-0.12210428714752197,0.0454898327589035
1683385914416629000,0.36062890625,9.81143856048584,-0.10295066982507706,0.05985504388809204
1683385914426608000,0.370608154296875,9.818621635437012,-0.1149216815829277,0.031124621629714966
1683385914436617700,0.38061767578125,9.801861763000488,-0.11971008777618408,0.023942016065120697
1683385914446627600,0.390627685546875,9.806650161743164,-0.1149216815829277,0.021547814831137657
1683385914456606700,0.400606689453125,9.799467086791992,-0.12210428714752197,0.023942016065120697
1683385914466616600,0.410616455078125,9.794678688049316,-0.1149216815829277,0.033518824726343155
1683385914476626400,0.42062646484375,9.787496566772461,-0.1149216815829277,0.031124621629714966
1683385914486636000,0.430635986328125,9.801861763000488,-0.090979665517807,0.05027823522686958
1683385914496615400,0.440615478515625,9.80904483795166,-0.10055647045373917,0.028730420395731926
1683385914506625300,0.450625244140625,9.816226959228516,-0.11252748221158981,0.023942016065120697
1683385914516635000,0.460634765625,9.780313491821289,-0.11252748221158981,0.016759412363171577
1683385914526614000,0.470614013671875,9.797073364257812,-0.1173158809542656,0.031124621629714966
1683385914536623900,0.480623779296875,9.895236015319824,-0.11971008777618408,0.0454898327589035
1683385914546633700,0.4906337890625,9.768342971801758,-0.10295066982507706,0.040701430290937424
1683385914556612900,0.50061279296875,9.773131370544434,-0.09816227108240128,0.05985504388809204
1683385914566622700,0.510622802734375,9.835380554199219,-0.12449848651885986,0.047884032130241394
1683385914576632600,0.520632568359375,9.840168952941895,-0.10773907601833344,0.033518824726343155
1683385914586611700,0.53061181640625,9.730035781860352,-0.11013327538967133,0.016759412363171577
1683385914596621600,0.54062158203125,9.775525093078613,-0.11971008777618408,0.019153613597154617
1683385914606631200,0.550631103515625,9.782708168029785,-0.11971008777618408,0.019153613597154617
1683385914616610600,0.560610595703125,9.840168952941895,-0.0933738648891449,0.035913024097681046
1683385914626620200,0.5706201171875,9.787496566772461,-0.09816227108240128,0.0454898327589035
1683385914636630000,0.580630126953125,9.77791976928711,-0.1173158809542656,0.0454898327589035
1683385914646609200,0.590609130859375,9.806650161743164,-0.10773907601833344,0.026336219161748886
1683385914656619000,0.600618896484375,9.801861763000488,-0.1173158809542656,0.019153613597154617
1683385914666628900,0.61062890625,9.773131370544434,-0.1412578970193863,0.033518824726343155
1683385914676608000,0.62060791015625,9.785101890563965,-0.11252748221158981,0.040701430290937424
1683385914686617900,0.630617919921875,9.823410034179688,-0.1173158809542656,0.035913024097681046
1683385914696627700,0.640627685546875,9.832986831665039,-0.11013327538967133,0.026336219161748886
1683385914706606800,0.65060693359375,9.81143856048584,-0.10773907601833344,0.038307227194309235
1683385914716616400,0.660616455078125,9.770736694335938,-0.10773907601833344,0.033518824726343155
1683385914726626300,0.670626220703125,9.792284965515137,-0.10773907601833344,0.023942016065120697
1683385914736636000,0.680635986328125,9.825803756713867,-0.10055647045373917,0.021547814831137657
1683385914746615300,0.690615234375,9.770736694335938,-0.1149216815829277,0.021547814831137657
1683385914756625200,0.700625244140625,9.780313491821289,-0.10773907601833344,0.026336219161748886
1683385914766634800,0.710634765625,9.780313491821289,-0.1173158809542656,0.021547814831137657
1683385914776614100,0.7206142578125,9.818621635437012,-0.10773907601833344,0.038307227194309235
1683385914786624000,0.7306240234375,9.797073364257812,-0.10773907601833344,0.043095629662275314
1683385914796633900,0.7406337890625,9.77791976928711,-0.12210428714752197,0.038307227194309235
1683385914806613000,0.750613037109375,9.794678688049316,-0.10773907601833344,0.040701430290937424
1683385914816622600,0.76062255859375,9.799467086791992,-0.11252748221158981,0.047884032130241394
1683385914826632400,0.770632568359375,9.780313491821289,-0.10773907601833344,0.038307227194309235
1683385914836611600,0.780611572265625,9.792284965515137,-0.10295066982507706,0.014365210197865963
1683385914846621400,0.790621337890625,9.782708168029785,-0.10773907601833344,0.040701430290937424
1683385914856631300,0.80063134765625,9.804255485534668,-0.10295066982507706,0.047884032130241394
1683385914866610400,0.8106103515625,9.746794700622559,-0.1149216815829277,0.038307227194309235
1683385914876620300,0.820620361328125,9.787496566772461,-0.10295066982507706,0.016759412363171577
1683385914886630000,0.8306298828125,9.794678688049316,-0.11971008777618408,0.026336219161748886
1683385914896609300,0.840609375,9.799467086791992,-0.10534487664699554,0.028730420395731926
1683385914906619100,0.850619140625,9.770736694335938,-0.1173158809542656,0.021547814831137657
1683385914916629000,0.86062890625,9.804255485534668,-0.11971008777618408,0.035913024097681046
1683385914926608100,0.870608154296875,9.78989028930664,-0.11013327538967133,0.038307227194309235
1683385914936617700,0.88061767578125,9.804255485534668,-0.11971008777618408,0.033518824726343155
1683385914946627600,0.890627685546875,9.770736694335938,-0.11013327538967133,0.043095629662275314
1683385914956606700,0.900606689453125,9.782708168029785,-0.11252748221158981,0.021547814831137657
1683385914966616600,0.910616455078125,9.801861763000488,-0.11252748221158981,0.040701430290937424
1683385914976626400,0.92062646484375,9.818621635437012,-0.10534487664699554,0.033518824726343155
1683385914986636000,0.930635986328125,9.794678688049316,-0.11971008777618408,0.035913024097681046
1683385914996615400,0.940615478515625,9.792284965515137,-0.12210428714752197,0.0454898327589035
1683385915006625300,0.950625244140625,9.81143856048584,-0.09576806426048279,0.040701430290937424
1683385915016635000,0.960634765625,9.78989028930664,-0.1173158809542656,0.021547814831137657
1683385915026614300,0.9706142578125,9.770736694335938,-0.1149216815829277,0.023942016065120697
1683385915036624000,0.980623779296875,9.77791976928711,-0.10055647045373917,0.016759412363171577
1683385915046633700,0.9906337890625,9.768342971801758,-0.11013327538967133,0.021547814831137657
1683385915056612900,1.00061279296875,9.792284965515137,-0.12210428714752197,0.035913024097681046
1683385915066622700,1.010622802734375,9.799467086791992,-0.10534487664699554,0.043095629662275314
1683385915076632300,1.02063232421875,9.806650161743164,-0.11252748221158981,0.05027823522686958
1683385915086611700,1.03061181640625,9.775525093078613,-0.10773907601833344,0.05506663769483566
1683385915096621600,1.04062158203125,9.799467086791992,-0.1149216815829277,0.05027823522686958
1683385915106631400,1.05063134765625,9.775525093078613,-0.10534487664699554,0.038307227194309235
1683385915116610300,1.0606103515625,9.801861763000488,-0.10295066982507706,0.028730420395731926
1683385915126620200,1.0706201171875,9.806650161743164,-0.09816227108240128,0.031124621629714966
1683385915136629800,1.080629638671875,9.799467086791992,-0.1149216815829277,0.038307227194309235
1683385915146609200,1.090609130859375,9.801861763000488,-0.09576806426048279,0.047884032130241394
1683385915156619000,1.100618896484375,9.804255485534668,-0.10534487664699554,0.038307227194309235
1683385915166628900,1.11062890625,9.780313491821289,-0.11013327538967133,0.035913024097681046
1683385915176608000,1.12060791015625,9.780313491821289,-0.090979665517807,0.035913024097681046
1683385915186617900,1.130617919921875,9.780313491821289,-0.10773907601833344,0.028730420395731926
1683385915196627700,1.140627685546875,9.77791976928711,-0.12210428714752197,0.026336219161748886
1683385915206606800,1.15060693359375,9.770736694335938,-0.10534487664699554,0.038307227194309235
1683385915216616400,1.160616455078125,9.787496566772461,-0.10773907601833344,0.05027823522686958
1683385915226626300,1.170626220703125,9.799467086791992,-0.12449848651885986,0.040701430290937424
1683385915236636000,1.180635986328125,9.818621635437012,-0.10534487664699554,0.047884032130241394
1683385915246615300,1.190615234375,9.768342971801758,-0.10534487664699554,0.040701430290937424
1683385915256625200,1.200625244140625,9.763554573059082,-0.09576806426048279,0.0454898327589035
1683385915266634800,1.210634765625,9.782708168029785,-0.1149216815829277,0.031124621629714966
1683385915276614100,1.2206142578125,9.799467086791992,-0.13407529890537262,0.047884032130241394
1683385915286624000,1.2306240234375,9.792284965515137,-0.11252748221158981,0.0454898327589035
1683385915296633600,1.240633544921875,9.794678688049316,-0.1173158809542656,0.043095629662275314
1683385915306613000,1.250613037109375,9.80904483795166,-0.10773907601833344,0.043095629662275314
1683385915316622600,1.26062255859375,9.787496566772461,-0.12928688526153564,0.05027823522686958
1683385915326632400,1.270632568359375,9.794678688049316,-0.11971008777618408,0.05027823522686958
1683385915336611800,1.28061181640625,9.780313491821289,-0.10773907601833344,0.026336219161748886
1683385915346621400,1.290621337890625,9.785101890563965,-0.1149216815829277,0.05746084079146385
1683385915356631000,1.300631103515625,9.794678688049316,-0.1149216815829277,0.023942016065120697
1683385915366610400,1.3106103515625,9.804255485534668,-0.07900865375995636,-0.29209262132644653
1683385915376620300,1.320620361328125,9.859322547912598,-0.028730420395731926,-0.2082955539226532
1683385915386630100,1.330630126953125,9.86650562286377,-0.17956513166427612,0.4141969084739685
1683385915396609300,1.340609375,9.835380554199219,-0.17717093229293823,0.31603461503982544
1683385915406619100,1.350619140625,9.835380554199219,-0.11971008777618408,0.0933738648891449
1683385915416629000,1.36062890625,9.837775230407715,-0.1412578970193863,0.12449848651885986
1683385915426608000,1.370608154296875,9.852140426635742,-0.12210428714752197,0.1364694982767105
1683385915436617700,1.38061767578125,9.856928825378418,-0.14365209639072418,0.14604631066322327
1683385915446627600,1.390627685546875,9.923966407775879,-0.15083470940589905,0.17956513166427612
1683385915456606700,1.400606689453125,9.797073364257812,-0.1388636976480484,0.2106897532939911
1683385915466616600,1.410616455078125,9.773131370544434,-0.13407529890537262,0.2513911724090576
1683385915476626400,1.42062646484375,9.612719535827637,-0.11971008777618408,0.2849099934101105
1683385915486636000,1.430635986328125,9.701305389404297,-0.12928688526153564,0.29209262132644653
1683385915496615400,1.440615478515625,10.050858497619629,-0.12449848651885986,0.2346317619085312
1683385915506625300,1.450625244140625,10.484209060668945,-0.06464344263076782,0.15083470940589905
1683385915516635000,1.460634765625,10.675745010375977,0.07661445438861847,-0.019153613597154617
1683385915526614000,1.470614013671875,10.876858711242676,0.10055647045373917,-0.11971008777618408
1683385915536623900,1.480623779296875,10.685321807861328,-0.035913024097681046,0.009576806798577309
1683385915546633500,1.490633544921875,10.35252857208252,-0.0694318488240242,0.19632454216480255
1683385915556612900,1.50061279296875,10.17296314239502,-0.22026655077934265,0.5746083855628967
1683385915566622700,1.510622802734375,10.038887977600098,-0.3471592366695404,1.2665326595306396
1683385915576632600,1.520632568359375,9.763554573059082,-0.33997663855552673,2.166752576828003
1683385915586611700,1.53061181640625,9.610325813293457,-0.08619125932455063,1.4867992401123047
1683385915596621600,1.54062158203125,9.672574996948242,0.07661445438861847,1.577778935432434
1683385915606631200,1.550631103515625,9.531316757202148,-0.12928688526153564,1.7357962131500244
1683385915616610600,1.560610595703125,9.660603523254395,-0.16759411990642548,1.9177556037902832
1683385915626620200,1.5706201171875,9.725247383117676,-0.026336219161748886,1.9345149993896484
1683385915636630000,1.580630126953125,9.497797966003418,0.011971008032560349,2.051830768585205
1683385915646609200,1.590609130859375,9.313444137573242,0.019153613597154617,2.0015525817871094
1683385915656619000,1.600618896484375,9.282320022583008,-0.047884032130241394,1.8579005002975464
1683385915666628900,1.61062890625,9.117119789123535,-0.13407529890537262,2.2242133617401123
1683385915676608000,1.62060791015625,8.719682693481445,-0.19632454216480255,3.1292216777801514
1683385915686617900,1.630617919921875,8.597578048706055,-0.19153612852096558,4.101267337799072
1683385915696627700,1.640627685546875,8.425195693969727,-0.2968810200691223,4.675876140594482
1683385915706606800,1.65060693359375,8.59997272491455,-0.6631938815116882,4.197035789489746
1683385915716616400,1.660616455078125,8.633491516113281,-0.24899697303771973,3.711012601852417
1683385915726626300,1.670626220703125,8.504204750061035,0.07422025501728058,3.620033025741577
1683385915736636000,1.680635986328125,8.71728801727295,0.05506663769483566,3.3039982318878174
1683385915746615300,1.690615234375,8.884882926940918,-0.14604631066322327,3.354276657104492
1683385915756625200,1.700625244140625,8.98543930053711,-0.3256114423274994,3.7469255924224854
1683385915766634800,1.710634765625,8.920795440673828,-0.4118026793003082,4.113238334655762
1683385915776614100,1.7206142578125,8.877699851989746,-0.31842881441116333,4.728548526763916
1683385915786624000,1.7306240234375,8.880094528198242,-0.33997663855552673,4.999093055725098
1683385915796633900,1.7406337890625,9.038111686706543,-0.38307225704193115,4.292803764343262
1683385915806613000,1.750613037109375,8.951920509338379,-0.30885201692581177,4.259284973144531
1683385915816622600,1.76062255859375,8.880094528198242,-0.3280056416988373,4.2975921630859375
1683385915826632400,1.770632568359375,8.712499618530273,-0.33039984107017517,4.412513732910156
1683385915836611600,1.780611572265625,8.56645393371582,-0.33039984107017517,4.527435302734375
1683385915846621400,1.790621337890625,8.449137687683105,-0.31364041566848755,4.639962673187256
1683385915856631300,1.80063134765625,8.312667846679688,-0.30885201692581177,4.73573112487793
1683385915866610400,1.8106103515625,8.178592681884766,-0.3232172429561615,4.824316501617432
1683385915876620300,1.820620361328125,8.303091049194336,-0.2968810200691223,4.7620673179626465
1683385915886630000,1.8306298828125,8.508993148803711,-0.2346317619085312,4.750096321105957
1683385915896609300,1.840609375,8.801085472106934,-0.1867477297782898,4.666299343109131
1683385915906619100,1.850619140625,8.825027465820312,-0.181959331035614,4.587290287017822
1683385915916629000,1.86062890625,8.652645111083984,-0.2585737705230713,4.551377296447754
1683385915926608100,1.870608154296875,8.540117263793945,-0.30885201692581177,4.4723687171936035
1683385915936617700,1.88061767578125,8.391676902770996,-0.2561795711517334,5.056553840637207
1683385915946627600,1.890627685546875,7.989450931549072,-0.3471592366695404,5.288791656494141
1683385915956606700,1.900606689453125,7.881711959838867,-0.40701428055763245,5.595249176025391
1683385915966616600,1.910616455078125,7.709329605102539,-0.49320554733276367,5.65031623840332
1683385915976626400,1.92062646484375,7.462726593017578,-0.5195417404174805,5.849034786224365
1683385915986636000,1.930635986328125,7.364564418792725,-0.5650315880775452,5.9974751472473145
1683385915996615400,1.940615478515625,7.891288757324219,-0.33518823981285095,5.353435039520264
1683385916006625300,1.950625244140625,8.147468566894531,-0.36152446269989014,5.315127849578857
1683385916016635000,1.960634765625,8.257601737976074,-0.3447650372982025,5.30076265335083
1683385916026614300,1.9706142578125,8.446743965148926,-0.33279404044151306,5.274426460266113
1683385916036624000,1.980623779296875,8.40843677520752,-0.2585737705230713,5.295974254608154
1683385916046633700,1.9906337890625,8.281543731689453,-0.33518823981285095,5.353435039520264
1683385916056612900,2.00061279296875,8.058882713317871,-0.3495534360408783,5.377377033233643
1683385916066622700,2.010622802734375,7.893682956695557,-0.3687070608139038,5.398924827575684
1683385916076632300,2.02063232421875,8.073247909545898,-0.33279404044151306,5.360617637634277
1683385916086611700,2.03061181640625,8.415618896484375,-0.2944868206977844,5.3127336502075195
1683385916096621600,2.04062158203125,8.576030731201172,-0.3471592366695404,5.281609058380127
1683385916106631400,2.05063134765625,8.523358345031738,-0.35913026332855225,5.2911858558654785
1683385916116610300,2.0606103515625,8.401253700256348,-0.2346317619085312,5.341464042663574
1683385916126620200,2.0706201171875,8.31985092163086,-0.3232172429561615,5.384559631347656
1683385916136629800,2.080629638671875,8.161833763122559,-0.33997663855552673,5.434837818145752
1683385916146609200,2.090609130859375,8.039729118347168,-0.36152446269989014,5.398924827575684
1683385916156619000,2.100618896484375,8.027758598327637,-0.2777273952960968,5.279214859008789
1683385916166628900,2.11062890625,8.006210327148438,-0.2059013396501541,5.2696380615234375
1683385916176608000,2.12060791015625,7.881711959838867,-0.19393034279346466,5.418078422546387
1683385916186617900,2.130617919921875,7.711723804473877,-0.2082955539226532,5.506663799285889
1683385916196627700,2.140627685546875,7.534552574157715,-0.3256114423274994,5.688623428344727
1683385916206606800,2.15060693359375,7.55131196975708,-0.4596867263317108,5.758055210113525
1683385916216616400,2.160616455078125,7.663839817047119,-0.42616790533065796,5.698200225830078
1683385916226626300,2.170626220703125,7.936778545379639,-0.3256114423274994,5.518634796142578
1683385916236636000,2.180635986328125,8.238448143005371,-0.33039984107017517,5.497087001800537
1683385916246615300,2.190615234375,8.458714485168457,-0.30885201692581177,5.415684223175049
1683385916256625200,2.200625244140625,8.542511940002441,-0.28730419278144836,5.286397457122803
1683385916266634800,2.210634765625,8.485051155090332,-0.3232172429561615,5.2911858558654785
1683385916276614100,2.2206142578125,8.310274124145508,-0.33518823981285095,5.413290023803711
1683385916286624000,2.2306240234375,8.08043098449707,-0.4405331015586853,5.585672378540039
1683385916296633600,2.240633544921875,7.99184513092041,-0.40222588181495667,5.602431774139404
1683385916306613000,2.250613037109375,8.121131896972656,-0.2753331959247589,5.336675643920898
1683385916316622800,2.260622802734375,8.183381080627441,-0.30885201692581177,5.365406036376953
1683385916326632400,2.270632568359375,8.202534675598145,-0.26575639843940735,5.343858242034912
1683385916336485400,2.2804853515625,8.334216117858887,-0.2561795711517334,5.3342814445495605
1683385916346621400,2.290621337890625,8.453926086425781,-0.2322375625371933,5.315127849578857
1683385916356631000,2.300631103515625,8.358158111572266,-0.2537853717803955,5.360617637634277
1683385916366610400,2.3106103515625,8.2312650680542,-0.2753331959247589,5.34625244140625
1683385916376620300,2.320620361328125,8.236053466796875,-0.16998831927776337,5.207388877868652
1683385916386630100,2.330630126953125,8.109161376953125,-0.21308395266532898,5.250484466552734
1683385916396609300,2.340609375,7.977479934692383,-0.2585737705230713,5.319916248321533
1683385916406619100,2.350619140625,7.860164165496826,-0.31364041566848755,5.461174011230469
1683385916416629000,2.36062890625,7.829039573669434,-0.33997663855552673,5.621585369110107
1683385916426608000,2.370608154296875,7.94635534286499,-0.3519476354122162,5.616796970367432
1683385916436617700,2.38061767578125,8.034940719604492,-0.3495534360408783,5.475539207458496
1683385916446627600,2.390627685546875,8.17141056060791,-0.23942017555236816,5.355829238891602
1683385916456606700,2.400606689453125,8.180987358093262,-0.26815059781074524,5.324704647064209
1683385916466616600,2.410616455078125,8.128314971923828,-0.26815059781074524,5.327098846435547
1683385916476626400,2.42062646484375,8.123526573181152,-0.2561795711517334,5.322310447692871
1683385916486636000,2.430635986328125,8.094796180725098,-0.2825157940387726,5.276820659637451
1683385916496615400,2.440615478515625,8.075642585754395,-0.24899697303771973,5.231330871582031
1683385916506625300,2.450625244140625,8.085219383239746,-0.23702596127986908,5.2265424728393555
1683385916516635000,2.460634765625,8.020575523376465,-0.23702596127986908,5.195417881011963
1683385916526614000,2.470614013671875,7.975085735321045,-0.23942017555236816,5.142745018005371
1683385916536623900,2.480623779296875,8.094796180725098,-0.22266076505184174,5.063736438751221
1683385916546633500,2.490633544921875,8.157045364379883,-0.2322375625371933,5.003881454467773
1683385916556612900,2.50061279296875,8.10437297821045,-0.2082955539226532,4.948814868927002
1683385916566622700,2.510622802734375,8.022970199584961,-0.2106897532939911,4.836287498474121
1683385916576632600,2.520632568359375,8.152256965637207,-0.14365209639072418,4.551377296447754
1683385916586611700,2.53061181640625,8.427590370178223,-0.21547815203666687,4.46518611907959
1683385916596621600,2.54062158203125,8.56884765625,-0.18914192914962769,4.398148536682129
1683385916606662000,2.550661865234375,8.69095230102539,-0.17477671802043915,4.189853191375732
1683385916616610600,2.560610595703125,8.825027465820312,-0.1364694982767105,3.9240965843200684
1683385916626620200,2.5706201171875,9.083600997924805,-0.023942016065120697,3.557783842086792
1683385916636630000,2.580630126953125,9.433155059814453,0.09816227108240128,3.31118106842041
1683385916646609200,2.590609130859375,9.600749015808105,0.05027823522686958,3.07415509223938
1683385916656619000,2.600618896484375,9.567230224609375,-0.13407529890537262,3.023876667022705
1683385916666628900,2.61062890625,9.078812599182129,-0.2825157940387726,3.6727054119110107
1683385916676608000,2.62060791015625,9.08838939666748,-0.3447650372982025,4.199429988861084
1683385916686617900,2.630617919921875,9.006986618041992,-0.3232172429561615,4.201824188232422
1683385916696627700,2.640627685546875,9.349357604980469,-0.2849099934101105,3.9384617805480957
1683385916706606800,2.65060693359375,9.50498104095459,-0.08858546614646912,3.0119056701660156
1683385916716616400,2.660616455078125,9.564835548400879,-0.09576806426048279,2.87064790725708
1683385916726626300,2.670626220703125,9.583989143371582,0.028730420395731926,2.3965959548950195
1683385916736636000,2.680635986328125,9.583989143371582,0.12689268589019775,1.9081788063049316
1683385916746615300,2.690615234375,9.349357604980469,0.023942016065120697,2.0685901641845703
1683385916756625200,2.700625244140625,9.313444137573242,-0.004788403399288654,2.1499931812286377
1683385916766634800,2.710634765625,9.105149269104004,-0.181959331035614,2.499546527862549
1683385916776614100,2.7206142578125,9.184157371520996,-0.26575639843940735,2.738966703414917
1683385916786624000,2.7306240234375,9.289502143859863,-0.2849099934101105,2.734178304672241
1683385916796633900,2.7406337890625,9.452308654785156,-0.22266076505184174,2.4205379486083984
1683385916806613000,2.750613037109375,9.555258750915527,-0.16759411990642548,1.968033790588379
1683385916816622800,2.760622802734375,9.514557838439941,-0.181959331035614,1.235408067703247
1683385916826632400,2.770632568359375,9.41400146484375,-0.22505496442317963,0.8403648138046265
1683385916836611600,2.780611572265625,9.442731857299805,-0.09816227108240128,1.2856862545013428
1683385916846621400,2.790621337890625,9.485827445983887,-0.12689268589019775,1.9823989868164062
1683385916856631300,2.80063134765625,9.579200744628906,-0.2082955539226532,2.5905263423919678
1683385916866610400,2.8106103515625,9.909601211547852,-0.1149216815829277,0.8930372595787048
1683385916876620300,2.820620361328125,10.062829971313477,-0.13407529890537262,0.6919242739677429
1683385916886630000,2.8306298828125,10.170568466186523,-0.12928688526153564,0.45010992884635925
1683385916896609300,2.840609375,10.254365921020508,-0.1388636976480484,0.24420857429504395
1683385916906619100,2.850619140625,10.369287490844727,-0.19393034279346466,0.1173158809542656
1683385916916629000,2.86062890625,10.99656867980957,-0.3208230137825012,0.004788403399288654
1683385916926608100,2.870608154296875,11.73398208618164,0.09576806426048279,-0.0933738648891449
1683385916936617700,2.88061767578125,10.017339706420898,-0.10773907601833344,0.0933738648891449
1683385916946627600,2.890627685546875,9.835380554199219,-0.13168109953403473,0.1628057211637497
1683385916956606700,2.900606689453125,9.643844604492188,-0.12210428714752197,0.15562310814857483
1683385916966616600,2.910616455078125,9.830592155456543,-0.12449848651885986,0.090979665517807
1683385916976626400,2.92062646484375,9.770736694335938,-0.090979665517807,0.043095629662275314
1683385916986636000,2.930635986328125,9.703699111938477,-0.1173158809542656,0.05027823522686958
1683385916996615400,2.940615478515625,9.742006301879883,-0.12449848651885986,0.06464344263076782
1683385917006625300,2.950625244140625,9.895236015319824,-0.12210428714752197,0.08858546614646912
1683385917016635000,2.960634765625,9.849745750427246,-0.12449848651885986,0.1173158809542656
1683385917026614300,2.9706142578125,9.739612579345703,-0.13168109953403473,0.11252748221158981
1683385917036624000,2.980623779296875,9.787496566772461,-0.14604631066322327,0.07900865375995636
1683385917046633500,2.990633544921875,9.818621635437012,-0.15083470940589905,0.031124621629714966
1683385917056612900,3.00061279296875,9.78989028930664,-0.14365209639072418,0.026336219161748886
1683385917066622700,3.010622802734375,9.742006301879883,-0.12928688526153564,0.038307227194309235
1683385917076632300,3.02063232421875,9.794678688049316,-0.09576806426048279,0.0694318488240242
1683385917086611700,3.03061181640625,9.837775230407715,-0.10055647045373917,0.05746084079146385
1683385917096621600,3.04062158203125,9.794678688049316,-0.0933738648891449,0.05027823522686958
1683385917106631400,3.05063134765625,9.77791976928711,-0.1173158809542656,0.016759412363171577
1683385917116610300,3.0606103515625,9.768342971801758,-0.09816227108240128,0.011971008032560349
1683385917126620200,3.0706201171875,9.75637149810791,-0.10295066982507706,0.016759412363171577
1683385917136629800,3.080629638671875,9.720458984375,-0.11252748221158981,0.026336219161748886
1683385917146609200,3.090609130859375,9.830592155456543,-0.10055647045373917,0.10295066982507706
1683385917156619000,3.100618896484375,9.804255485534668,-0.12689268589019775,0.033518824726343155
1683385917166628900,3.11062890625,9.792284965515137,-0.12689268589019775,0.047884032130241394
1683385917176608000,3.12060791015625,9.78989028930664,-0.11013327538967133,0.0454898327589035
1683385917186617900,3.130617919921875,9.773131370544434,-0.11013327538967133,0.040701430290937424
1683385917196627700,3.140627685546875,9.775525093078613,-0.1149216815829277,0.038307227194309235
1683385917206606800,3.15060693359375,9.3828763961792,-0.11971008777618408,-0.023942016065120697
1683385917216616400,3.160616455078125,9.830592155456543,-0.11971008777618408,0.014365210197865963
1683385917226626300,3.170626220703125,9.765948295593262,-0.10773907601833344,0.047884032130241394
1683385917236636200,3.18063623046875,9.801861763000488,-0.09816227108240128,0.06224924325942993
1683385917246615300,3.190615234375,9.780313491821289,-0.11252748221158981,0.035913024097681046
1683385917256625200,3.200625244140625,9.794678688049316,-0.10295066982507706,0.0454898327589035
1683385917266634800,3.210634765625,9.775525093078613,-0.1173158809542656,0.033518824726343155
1683385917276614100,3.2206142578125,9.797073364257812,-0.12449848651885986,0.026336219161748886
1683385917286624000,3.2306240234375,9.801861763000488,-0.11252748221158981,0.043095629662275314
1683385917296633600,3.240633544921875,9.792284965515137,-0.10534487664699554,0.06703764945268631
1683385917306613000,3.250613037109375,9.780313491821289,-0.10055647045373917,0.033518824726343155
1683385917316622800,3.260622802734375,9.775525093078613,-0.10055647045373917,0.026336219161748886
1683385917326632400,3.270632568359375,9.78989028930664,-0.090979665517807,0.021547814831137657
1683385917336611800,3.28061181640625,9.78989028930664,-0.12210428714752197,0.023942016065120697
1683385917346621400,3.290621337890625,9.765948295593262,-0.11971008777618408,0.038307227194309235
1683385917356631000,3.300631103515625,9.636661529541016,-0.10773907601833344,0.05027823522686958
1683385917366610400,3.3106103515625,9.923966407775879,-0.12928688526153564,0.05746084079146385
1683385917376620300,3.320620361328125,9.873687744140625,-0.0933738648891449,0.023942016065120697
1683385917386630100,3.330630126953125,9.923966407775879,-0.1173158809542656,0.019153613597154617
1683385917396609300,3.340609375,9.634267807006836,-0.12449848651885986,0.0694318488240242
1683385917406619100,3.350619140625,9.821015357971191,-0.11013327538967133,0.0694318488240242
1683385917416629000,3.36062890625,9.727641105651855,-0.11013327538967133,0.05506663769483566
1683385917426608000,3.370608154296875,9.818621635437012,-0.12689268589019775,0.021547814831137657
1683385917436617700,3.38061767578125,9.651026725769043,-0.12689268589019775,-0.002394201699644327
1683385917446627600,3.390627685546875,9.81143856048584,-0.11971008777618408,0.011971008032560349
1683385917456606700,3.400606689453125,9.854534149169922,-0.10295066982507706,0.05746084079146385
1683385917466616600,3.410616455078125,9.890447616577148,-0.10055647045373917,0.08379705995321274
1683385917476626400,3.42062646484375,9.679757118225098,-0.11252748221158981,0.08140286058187485
1683385917486636000,3.430635986328125,9.816226959228516,-0.11971008777618408,0.040701430290937424
1683385917496615400,3.440615478515625,9.80904483795166,-0.1173158809542656,0.023942016065120697
1683385917506625300,3.450625244140625,9.818621635437012,-0.11013327538967133,0.004788403399288654
1683385917516635000,3.460634765625,9.68694019317627,-0.12449848651885986,0.023942016065120697
1683385917526614000,3.470614013671875,9.739612579345703,-0.11252748221158981,0.13168109953403473
1683385917536623900,3.480623779296875,9.80904483795166,-0.035913024097681046,0.912190854549408
1683385917546633500,3.490633544921875,9.830592155456543,-0.11013327538967133,1.0031704902648926
1683385917556612900,3.50061279296875,9.914389610290527,-0.33279404044151306,0.22266076505184174
1683385917566622700,3.510622802734375,9.892841339111328,0.09816227108240128,-2.0638017654418945
1683385917576632600,3.520632568359375,9.66539192199707,-0.11252748221158981,-0.016759412363171577
1683385917586611700,3.53061181640625,9.923966407775879,-0.13407529890537262,0.05027823522686958
1683385917596621600,3.54062158203125,9.696516990661621,-0.09576806426048279,0.033518824726343155
1683385917606631200,3.550631103515625,9.775525093078613,-0.090979665517807,0.047884032130241394
1683385917616610600,3.560610595703125,9.785101890563965,-0.10055647045373917,0.05506663769483566
1683385917626620200,3.5706201171875,9.84256362915039,-0.10773907601833344,0.05027823522686958
1683385917636630000,3.580630126953125,9.653421401977539,-0.09816227108240128,0.07182604819536209
1683385917646609200,3.590609130859375,9.818621635437012,-0.10295066982507706,0.08619125932455063
1683385917656619000,3.600618896484375,9.801861763000488,-0.11252748221158981,0.6440402865409851
1683385917666628900,3.61062890625,9.797073364257812,0.15083470940589905,1.2761094570159912
1683385917676608000,3.62060791015625,9.792284965515137,-0.15562310814857483,0.3016694188117981
1683385917686617900,3.630617919921875,9.806650161743164,-0.35913026332855225,-0.7086837291717529
1683385917696627700,3.640627685546875,9.840168952941895,-0.05985504388809204,-0.24899697303771973
1683385917706606800,3.65060693359375,9.775525093078613,-0.08140286058187485,-0.26336219906806946
1683385917716616400,3.660616455078125,9.765948295593262,-0.1843535304069519,-0.6440402865409851
1683385917726626300,3.670626220703125,9.787496566772461,-0.12928688526153564,-0.047884032130241394
1683385917736636200,3.68063623046875,9.782708168029785,-0.10055647045373917,0.0071826050989329815
1683385917746615300,3.690615234375,9.75637149810791,-0.08858546614646912,0.021547814831137657
1683385917756625200,3.700625244140625,9.75397777557373,0.689530074596405,-0.272938996553421
1683385917766634800,3.710634765625,9.816226959228516,0.4189853072166443,-0.2059013396501541
1683385917776614100,3.7206142578125,9.892841339111328,-0.40222588181495667,-0.5267243981361389
1683385917786624000,3.7306240234375,9.90241813659668,-0.608127236366272,-0.4620809257030487
1683385917796633900,3.7406337890625,9.864110946655273,-0.4381389021873474,0.10534487664699554
1683385917806613000,3.750613037109375,10.034099578857422,-0.3519476354122162,0.36152446269989014
1683385917816622800,3.760622802734375,10.649409294128418,-0.23702596127986908,0.5051765441894531
1683385917826632400,3.770632568359375,10.424354553222656,-0.1173158809542656,-0.12449848651885986
1683385917836611600,3.780611572265625,10.022128105163574,-0.12210428714752197,0.15801730751991272
1683385917846621400,3.790621337890625,9.373299598693848,-0.08379705995321274,0.3878606855869293
1683385917856631300,3.80063134765625,9.564835548400879,-0.12928688526153564,-0.21308395266532898
1683385917866610400,3.8106103515625,10.04846477508545,-0.19153612852096558,-0.44771572947502136
1683385917876620300,3.820620361328125,10.0580415725708,-0.07422025501728058,0.028730420395731926
1683385917886630000,3.8306298828125,9.926360130310059,0.05985504388809204,0.019153613597154617
1683385917896609300,3.840609375,9.694122314453125,0.1604115068912506,-0.21787235140800476
1683385917906619100,3.850619140625,9.62947940826416,0.17477671802043915,-0.17477671802043915
1683385917916629000,3.86062890625,9.660603523254395,0.2346317619085312,-0.1364694982767105
1683385917926608100,3.870608154296875,9.84495735168457,0.24181437492370605,-0.272938996553421
1683385917936617700,3.88061767578125,10.125079154968262,0.2849099934101105,-0.17238251864910126
1683385917946627600,3.890627685546875,10.66137981414795,0.49799394607543945,-0.2298433631658554
1683385917956606700,3.900606689453125,11.24795913696289,0.33758243918418884,0.3687070608139038
1683385917966616600,3.910616455078125,11.396400451660156,0.07661445438861847,1.2449848651885986
1683385917976626400,3.92062646484375,11.109095573425293,0.727837324142456,0.9145850539207458
1683385917986636000,3.930635986328125,10.884040832519531,0.3423708379268646,1.2976573705673218
1683385917996615400,3.940615478515625,10.697293281555176,0.19153612852096558,1.1276689767837524
1683385918006625300,3.950625244140625,10.54645824432373,0.2346317619085312,0.5291185975074768
1683385918016635000,3.960634765625,10.515334129333496,0.272938996553421,-0.3016694188117981
1683385918026614300,3.9706142578125,10.237606048583984,-0.06464344263076782,-0.9050082564353943
1683385918036624000,3.980623779296875,9.830592155456543,-0.3495534360408783,-1.0414776802062988
1683385918046633700,3.9906337890625,9.184157371520996,-0.23942017555236816,-1.139639973640442
1683385918056612900,4.00061279296875,9.318233489990234,0.811634361743927,-1.0079588890075684
1683385918066622700,4.010622802734375,9.636661529541016,1.048660397529602,-0.768538773059845
1683385918076632300,4.02063232421875,9.679757118225098,1.2880805730819702,-0.019153613597154617
1683385918086611700,4.03061181640625,9.909601211547852,1.8555063009262085,0.9409212470054626
1683385918096621600,4.04062158203125,10.433931350708008,1.53707754611969,1.4987702369689941
1683385918106631400,4.05063134765625,10.342951774597168,1.0342950820922852,1.656787633895874
1683385918116610300,4.0606103515625,9.758766174316406,0.7996633648872375,1.414973258972168
1683385918126620200,4.0706201171875,9.23443603515625,0.730231523513794,0.608127236366272
1683385918136629800,4.080629638671875,9.318233489990234,1.1994950771331787,-0.7589619159698486
1683385918146609200,4.090609130859375,9.871294021606445,1.6879122257232666,-1.745373010635376
1683385918156619000,4.100618896484375,10.0580415725708,1.7477672100067139,-1.9752163887023926
1683385918166628900,4.11062890625,9.8784761428833,1.460463047027588,-1.278503656387329
1683385918176608000,4.12060791015625,9.773131370544434,1.3646949529647827,-0.42616790533065796
1683385918186617900,4.130617919921875,9.586383819580078,1.2713210582733154,0.33518823981285095
1683385918196627700,4.140627685546875,9.160215377807617,1.335964560508728,0.4620809257030487
1683385918206606800,4.15060693359375,9.002198219299316,1.5753847360610962,0.6512228846549988
1683385918216616400,4.160616455078125,9.006986618041992,1.8171991109848022,0.5985504388809204
1683385918226626300,4.170626220703125,8.992621421813965,2.0638017654418945,0.2346317619085312
1683385918236636200,4.18063623046875,9.196128845214844,2.248155355453491,0.2298433631658554
1683385918246615300,4.190615234375,9.617507934570312,2.3127987384796143,0.1364694982767105
1683385918256625200,4.200625244140625,9.986215591430664,2.2673089504241943,-0.031124621629714966
1683385918266634800,4.210634765625,10.33098030090332,2.1380221843719482,0.1388636976480484
1683385918276614100,4.2206142578125,10.218452453613281,2.27209734916687,0.2944868206977844
1683385918286624000,4.2306240234375,9.785101890563965,2.403778553009033,0.5985504388809204
1683385918296633600,4.240633544921875,9.646238327026367,2.5522189140319824,0.3687070608139038
1683385918306613000,4.250613037109375,9.533711433410645,2.650381326675415,0.272938996553421
1683385918316622800,4.260622802734375,9.411606788635254,2.9305028915405273,0.8020575642585754
1683385918326632400,4.270632568359375,9.030928611755371,2.894589900970459,0.2585737705230713
1683385918336611800,4.28061181640625,9.229647636413574,3.004723072052002,0.6248866319656372
1683385918346621400,4.290621337890625,9.873687744140625,3.095702886581421,0.07661445438861847
1683385918356631000,4.300631103515625,9.840168952941895,3.112462282180786,0.1149216815829277
1683385918366610400,4.3106103515625,9.490615844726562,3.227383852005005,0.33279404044151306
1683385918376620300,4.320620361328125,8.846575736999512,3.251325845718384,0.19871874153614044
1683385918386630100,4.330630126953125,8.291120529174805,3.318363666534424,-0.07900865375995636
1683385918396609300,4.340609375,8.157045364379883,3.5218706130981445,-0.2968810200691223
1683385918406619100,4.350619140625,8.24084186553955,3.758896589279175,-0.6775590777397156
1683385918416629000,4.36062890625,8.497021675109863,4.503493309020996,-1.0989385843276978
1683385918426608000,4.370608154296875,8.892065048217773,4.4292731285095215,-0.9313444495201111
1683385918436617700,4.38061767578125,9.215282440185547,3.5697548389434814,0.23942017555236816
1683385918446627600,4.390627685546875,8.106766700744629,3.227383852005005,1.2186486721038818
1683385918456606700,4.400606689453125,7.398083209991455,3.339911460876465,1.4724340438842773
1683385918466616600,4.410616455078125,7.948749542236328,4.395754337310791,0.5578489899635315
1683385918476626400,4.42062646484375,8.29590892791748,4.113238334655762,-0.17477671802043915
1683385918486636000,4.430635986328125,7.9176249504089355,4.089296340942383,-0.730231523513794
1683385918496615400,4.440615478515625,7.395689010620117,4.113238334655762,-1.1180921792984009
1683385918506625300,4.450625244140625,7.682993412017822,4.182670593261719,-1.1492167711257935
1683385918516635000,4.460634765625,8.248024940490723,4.699818134307861,-1.1085153818130493
1683385918526614000,4.470614013671875,9.090784072875977,5.116408824920654,-0.9265560507774353
1683385918536623900,4.480623779296875,9.071630477905273,4.750096321105957,0.31842881441116333
1683385918546633500,4.490633544921875,8.571242332458496,4.481945514678955,1.0223240852355957
1683385918556612900,4.50061279296875,8.17380428314209,4.256890773773193,1.115697979927063
1683385918566622700,4.510622802734375,7.848193168640137,4.3191399574279785,0.9169792532920837
1683385918576632600,4.520632568359375,8.039729118347168,4.757278919219971,0.5626373887062073
1683385918586611700,4.53061181640625,8.4108304977417,5.063736438751221,0.014365210197865963
1683385918596621600,4.54062158203125,8.449137687683105,5.0876784324646,-0.24181437492370605
1683385918606631200,4.550631103515625,8.252813339233398,4.93923807144165,-0.05506663769483566
1683385918616610600,4.560610595703125,7.750030994415283,4.5609540939331055,0.26815059781074524
1683385918626620200,4.5706201171875,7.005434036254883,4.082113742828369,0.15322890877723694
1683385918636630000,4.580630126953125,6.830657482147217,4.675876140594482,-0.8236053586006165
1683385918646609200,4.590609130859375,7.4555439949035645,4.78122091293335,-1.0558429956436157
1683385918656619000,4.600618896484375,8.054094314575195,4.9799394607543945,-0.09576806426048279
1683385918666628900,4.61062890625,8.255207061767578,4.867412090301514,0.13407529890537262
1683385918676608000,4.62060791015625,8.149862289428711,4.9152960777282715,0.40701428055763245
1683385918686617900,4.630617919921875,8.101978302001953,4.972756862640381,0.5195417404174805
1683385918696627700,4.640627685546875,8.219294548034668,4.764461517333984,0.40940847992897034
1683385918706606800,4.65060693359375,8.195352554321289,4.836287498474121,-0.05506663769483566
1683385918716616400,4.660616455078125,7.86734676361084,4.778826713562012,-0.40462008118629456
1683385918726626300,4.670626220703125,8.092401504516602,4.845864295959473,-0.26096799969673157
1683385918736636200,4.68063623046875,8.379706382751465,4.891354084014893,0.14604631066322327
1683385918746615300,4.690615234375,8.489839553833008,4.874594688415527,0.12449848651885986
1683385918756625200,4.700625244140625,8.588001251220703,4.8602294921875,0.19393034279346466
1683385918766634800,4.710634765625,8.35336971282959,4.865017890930176,0.16519992053508759
1683385918776614100,4.7206142578125,8.24084186553955,4.9368438720703125,0.40701428055763245
1683385918786624000,4.7306240234375,8.698134422302246,5.245696067810059,-0.10534487664699554
1683385918796633900,4.7406337890625,8.710105895996094,4.793191909790039,-0.1149216815829277
1683385918806613000,4.750613037109375,7.819462776184082,4.2975921630859375,0.24420857429504395
1683385918816622800,4.760622802734375,7.91283655166626,4.76924991607666,-0.40701428055763245
1683385918826632400,4.770632568359375,8.49941635131836,4.711789131164551,-0.5530605912208557
1683385918836611600,4.780611572265625,8.279149055480957,4.747702121734619,0.05027823522686958
1683385918846621400,4.790621337890625,8.329427719116211,4.766855716705322,0.12210428714752197
1683385918856631300,4.80063134765625,8.35097599029541,4.7189717292785645,0.023942016065120697
1683385918866610400,4.8106103515625,8.255207061767578,4.72376012802124,0.08619125932455063
1683385918876620300,4.820620361328125,8.14028549194336,4.687847137451172,0.038307227194309235
1683385918886630000,4.8306298828125,8.034940719604492,4.659116744995117,0.009576806798577309
1683385918896609300,4.840609375,8.070854187011719,4.692635536193848,0.038307227194309235
1683385918906619100,4.850619140625,8.042123794555664,4.63517427444458,-0.12210428714752197
1683385918916629000,4.86062890625,8.135497093200684,4.58968448638916,-0.2059013396501541
1683385918926608100,4.870608154296875,8.271966934204102,4.580107688903809,0.004788403399288654
1683385918936617700,4.88061767578125,8.11634349822998,4.606443881988525,0.16998831927776337
1683385918946627600,4.890627685546875,8.075642585754395,4.503493309020996,0.2561795711517334
1683385918956606700,4.900606689453125,7.922413349151611,4.460397720336914,0.16759411990642548
1683385918966616600,4.910616455078125,7.99184513092041,4.41969633102417,-0.002394201699644327
1683385918976626400,4.92062646484375,7.905653953552246,4.357447147369385,-0.05746084079146385
1683385918986636000,4.930635986328125,8.001421928405762,4.285621166229248,-0.19393034279346466
1683385918996615400,4.940615478515625,8.180987358093262,4.247313976287842,-0.24181437492370605
1683385919006625300,4.950625244140625,8.044517517089844,4.304774761199951,0.10773907601833344
1683385919016635000,4.960634765625,7.903259754180908,4.211400985717773,0.2082955539226532
1683385919026614300,4.9706142578125,7.807491779327393,3.9600095748901367,0.3447650372982025
1683385919036624000,4.980623779296875,7.750030994415283,3.971980571746826,0.13168109953403473
1683385919046633700,4.9906337890625,7.876923561096191,3.8498764038085938,-0.18914192914962769
1683385919056612900,5.00061279296875,8.176198959350586,3.6990416049957275,-0.16998831927776337
1683385919066622700,5.010622802734375,8.429984092712402,3.531447410583496,-0.5147533416748047
1683385919076632300,5.02063232421875,8.633491516113281,3.464409828186035,-0.6320692300796509
1683385919086611700,5.03061181640625,8.69095230102539,3.5051112174987793,-0.38307225704193115
1683385919096621600,5.04062158203125,8.619126319885254,3.315969467163086,0.2849099934101105
1683385919106631400,5.05063134765625,8.801085472106934,3.160346269607544,0.36152446269989014
1683385919116610300,5.0606103515625,9.174580574035645,3.1651346683502197,0.3974374830722809
1683385919126620200,5.0706201171875,9.220070838928223,3.1196448802948,0.4668693244457245
1683385919136629800,5.080629638671875,9.32302188873291,2.9281086921691895,0.35434186458587646
1683385919146609200,5.090609130859375,9.32541561126709,2.9448680877685547,0.27054479718208313
1683385919156619000,5.100618896484375,9.196128845214844,2.7485435009002686,0.004788403399288654
1683385919166628900,5.11062890625,9.244012832641602,2.3965959548950195,-0.002394201699644327
1683385919176608000,5.12060791015625,8.882488250732422,2.2888567447662354,0.2585737705230713
1683385919186617900,5.130617919921875,8.920795440673828,2.2697031497955322,0.0454898327589035
1683385919196627700,5.140627685546875,9.188945770263672,2.3247697353363037,-0.0454898327589035
1683385919206606800,5.15060693359375,9.481039047241211,2.427720546722412,0.12928688526153564
1683385919216616400,5.160616455078125,9.361329078674316,2.3080103397369385,0.3974374830722809
1683385919226626300,5.170626220703125,9.531316757202148,1.9321208000183105,0.6607996821403503
1683385919236636200,5.18063623046875,9.14345645904541,1.6974890232086182,0.6368576288223267
1683385919246615300,5.190615234375,8.791508674621582,1.5825673341751099,0.5051765441894531
1683385919256625200,5.200625244140625,8.865729331970215,1.1659762859344482,0.23702596127986908
1683385919266634800,5.210634765625,8.971074104309082,0.8140285611152649,-0.3064578175544739
1683385919276614100,5.2206142578125,8.99740982055664,0.3878606855869293,-0.811634361743927
1683385919286624000,5.2306240234375,9.181763648986816,0.395043283700943,-0.8331822156906128
1683385919296633600,5.240633544921875,9.258378028869629,0.7972691655158997,-0.629675030708313
1683385919306613000,5.250613037109375,10.20648193359375,1.015141487121582,-0.24181437492370605
1683385919316622800,5.260622802734375,10.450690269470215,0.9720458984375,0.23942017555236816
1683385919326632400,5.270632568359375,10.072406768798828,0.7661445140838623,0.5817909836769104
1683385919336611800,5.28061181640625,9.5408935546875,0.24181437492370605,0.26336219906806946
1683385919346621400,5.290621337890625,9.21288776397705,-0.4141969084739685,0.009576806798577309
1683385919356631000,5.300631103515625,9.50498104095459,-1.0342950820922852,-0.24660277366638184
1683385919366610400,5.3106103515625,10.836156845092773,-1.3886369466781616,-0.19393034279346466
1683385919376620300,5.320620361328125,19.433734893798828,1.8555063009262085,-0.2777273952960968
1683385919386630100,5.330630126953125,22.218191146850586,1.4867992401123047,-1.8722656965255737
1683385919396609300,5.340609375,12.322956085205078,-1.1276689767837524,0.6224924325942993
1683385919406619100,5.350619140625,8.604761123657227,-0.4213795065879822,0.9169792532920837
1683385919416629000,5.36062890625,6.830657482147217,0.009576806798577309,-0.14844051003456116
1683385919426608000,5.370608154296875,6.672640323638916,-0.009576806798577309,-0.3064578175544739
1683385919436617700,5.38061767578125,7.905653953552246,0.016759412363171577,0.035913024097681046
1683385919446627600,5.390627685546875,10.249577522277832,-0.07182604819536209,0.2585737705230713
1683385919456606700,5.400606689453125,11.298237800598145,-0.5147533416748047,0.5434837937355042
1683385919466616600,5.410616455078125,11.312602996826172,-0.12928688526153564,0.3711012601852417
1683385919476626400,5.42062646484375,10.070012092590332,0.2944868206977844,-0.5219359993934631
1683385919486636000,5.430635986328125,9.524134635925293,-0.16519992053508759,-0.3687070608139038
1683385919496615400,5.440615478515625,9.732429504394531,-0.11971008777618408,-0.011971008032560349
1683385919506625300,5.450625244140625,9.888052940368652,-0.17956513166427612,-0.14365209639072418
1683385919516635000,5.460634765625,9.670180320739746,-0.05985504388809204,-0.06464344263076782
1683385919526614000,5.470614013671875,9.696516990661621,-0.043095629662275314,0.011971008032560349
1683385919536623900,5.480623779296875,9.864110946655273,-0.10055647045373917,0.08140286058187485
1683385919546633500,5.490633544921875,9.847352027893066,-0.05985504388809204,0.17238251864910126
1683385919556612900,5.50061279296875,9.77791976928711,-0.08619125932455063,0.2944868206977844
1683385919566622700,5.510622802734375,9.80904483795166,-0.0694318488240242,0.23942017555236816
1683385919576632600,5.520632568359375,9.837775230407715,-0.10773907601833344,-0.033518824726343155
1683385919586611700,5.53061181640625,9.813833236694336,-0.2082955539226532,-0.36152446269989014
1683385919596621600,5.54062158203125,9.78989028930664,-0.15801730751991272,-0.12449848651885986
1683385919606631200,5.550631103515625,9.852140426635742,-0.06703764945268631,0.16519992053508759
1683385919616610600,5.560610595703125,9.81143856048584,-0.0071826050989329815,0.40701428055763245
1683385919626620200,5.5706201171875,9.804255485534668,-0.13168109953403473,-0.1149216815829277
1683385919636630000,5.580630126953125,9.816226959228516,-0.16759411990642548,-0.181959331035614
1683385919646609200,5.590609130859375,9.773131370544434,-0.12449848651885986,-0.016759412363171577
1683385919656619000,5.600618896484375,9.674968719482422,-0.1388636976480484,-0.06224924325942993
1683385919666628900,5.61062890625,9.780313491821289,-0.2585737705230713,-0.14844051003456116
1683385919676608000,5.62060791015625,9.84495735168457,-0.44771572947502136,-0.2777273952960968
1683385919686617900,5.630617919921875,9.813833236694336,-0.17238251864910126,-0.07900865375995636
1683385919696627700,5.640627685546875,9.739612579345703,0.11971008777618408,0.3280056416988373
1683385919706606800,5.65060693359375,9.825803756713867,0.16759411990642548,0.5602431893348694
1683385919716616700,5.66061669921875,9.765948295593262,-0.08858546614646912,-0.004788403399288654
1683385919726626300,5.670626220703125,9.751583099365234,-0.10534487664699554,-0.028730420395731926
1683385919736636200,5.68063623046875,9.72285270690918,-0.0933738648891449,0.011971008032560349
1683385919746615300,5.690615234375,9.823410034179688,-0.10055647045373917,0.05027823522686958
1683385919756625200,5.700625244140625,9.799467086791992,-0.10534487664699554,0.0933738648891449
1683385919766634800,5.710634765625,9.749189376831055,-0.12449848651885986,0.08619125932455063
1683385919776614100,5.7206142578125,9.739612579345703,-0.6200982332229614,-0.24420857429504395
1683385919786624000,5.7306240234375,9.634267807006836,-1.3263877630233765,-0.11252748221158981
1683385919796633900,5.7406337890625,9.852140426635742,0.9193734526634216,0.933738648891449
1683385919806613000,5.750613037109375,9.715670585632324,0.5985504388809204,-0.768538773059845
1683385919816622800,5.760622802734375,9.861717224121094,-0.13407529890537262,0.021547814831137657
1683385919826632400,5.770632568359375,9.78989028930664,-0.11013327538967133,0.08140286058187485
1683385919836611600,5.780611572265625,9.78989028930664,-0.10773907601833344,0.0933738648891449
1683385919846621400,5.790621337890625,9.78989028930664,-0.10773907601833344,0.06224924325942993
1683385919856631300,5.80063134765625,9.77791976928711,-0.11252748221158981,0.016759412363171577
1683385919866610400,5.8106103515625,9.727641105651855,-0.13168109953403473,-0.009576806798577309
1683385919876620300,5.820620361328125,9.706093788146973,-0.10534487664699554,0.0071826050989329815
1683385919886630000,5.8306298828125,9.780313491821289,-0.1173158809542656,0.038307227194309235
1683385919896609300,5.840609375,9.806650161743164,-0.11971008777618408,0.07182604819536209
1683385919906619100,5.850619140625,9.80904483795166,-0.09576806426048279,0.08858546614646912
1683385919916629000,5.86062890625,9.763554573059082,-0.10055647045373917,0.05985504388809204
1683385919926608100,5.870608154296875,9.749189376831055,-0.12928688526153564,0.004788403399288654
1683385919936617700,5.88061767578125,9.780313491821289,-0.12928688526153564,0.002394201699644327
1683385919946627600,5.890627685546875,9.734824180603027,-0.11252748221158981,0
1683385919956606700,5.900606689453125,9.765948295593262,-0.1149216815829277,0.043095629662275314
1683385919966616600,5.910616455078125,9.859322547912598,-0.1149216815829277,0.05746084079146385
1683385919976626400,5.92062646484375,9.821015357971191,-0.1364694982767105,0.07900865375995636
1683385919986636000,5.930635986328125,9.720458984375,-1.0319008827209473,-0.9888052940368652
1683385919996615400,5.940615478515625,9.713275909423828,-1.2210428714752197,-0.9888052940368652
1683385920006625300,5.950625244140625,9.799467086791992,-0.5219359993934631,-0.24181437492370605
1683385920016635000,5.960634765625,9.81143856048584,0.4692635238170624,0.6967126727104187
1683385920026614300,5.9706142578125,9.773131370544434,1.2856862545013428,1.1827356815338135
1683385920036624000,5.980623779296875,9.605537414550781,0.10055647045373917,0.2561795711517334
1683385920046633700,5.9906337890625,9.859322547912598,-0.11971008777618408,0.090979665517807
1683385920056612900,6.00061279296875,9.821015357971191,-0.1173158809542656,0.043095629662275314
1683385920066622700,6.010622802734375,9.734824180603027,-0.12689268589019775,0.033518824726343155
1683385920076632300,6.02063232421875,9.710882186889648,-0.12689268589019775,0.002394201699644327
1683385920086611700,6.03061181640625,9.821015357971191,-0.11252748221158981,0.028730420395731926
1683385920096621600,6.04062158203125,9.785101890563965,-0.10534487664699554,0.043095629662275314
1683385920106631400,6.05063134765625,9.734824180603027,-0.016759412363171577,0.21308395266532898
1683385920116610300,6.0606103515625,9.885659217834473,0.040701430290937424,0.5482721924781799
1683385920126620200,6.0706201171875,9.773131370544434,-0.06703764945268631,0.10534487664699554
1683385920136629800,6.080629638671875,9.816226959228516,-0.24899697303771973,-0.3663128614425659
1683385920146609200,6.090609130859375,9.720458984375,-0.30885201692581177,-0.31124621629714966
1683385920156619000,6.100618896484375,9.770736694335938,-0.12210428714752197,0.009576806798577309
1683385920166628900,6.11062890625,9.734824180603027,-0.1149216815829277,0.028730420395731926
1683385920176608000,6.12060791015625,9.794678688049316,-0.11252748221158981,0.06224924325942993
1683385920186617900,6.130617919921875,9.715670585632324,-0.1173158809542656,0.06464344263076782
1683385920196627700,6.140627685546875,9.746794700622559,-0.12449848651885986,0.07661445438861847
1683385920206606800,6.15060693359375,9.627084732055664,-0.15083470940589905,0.1412578970193863
1683385920216616700,6.16061669921875,9.830592155456543,-0.5841852426528931,0.12210428714752197
1683385920226626300,6.170626220703125,9.962273597717285,-0.8403648138046265,0.2106897532939911
1683385920236636200,6.18063623046875,9.916783332824707,-0.2825157940387726,0.07900865375995636
1683385920246615300,6.190615234375,9.739612579345703,0.49320554733276367,-0.08379705995321274
1683385920256625200,6.200625244140625,9.497797966003418,0.646434485912323,-0.07900865375995636
1683385920266634800,6.210634765625,9.679757118225098,-0.2537853717803955,0.17477671802043915
1683385920276614100,6.2206142578125,9.801861763000488,-0.09576806426048279,0.14365209639072418
1683385920286624000,6.2306240234375,9.971850395202637,-0.5530605912208557,0.07900865375995636
1683385920296633600,6.240633544921875,9.909601211547852,-0.40462008118629456,0.06703764945268631
1683385920306613000,6.250613037109375,9.847352027893066,-0.586579442024231,0.0071826050989329815
1683385920316622800,6.260622802734375,9.950302124023438,-0.7422025203704834,0.12449848651885986
1683385920326632700,6.2706328125,9.911994934082031,-0.828393816947937,0.24660277366638184
1683385920336611800,6.28061181640625,9.950302124023438,-0.5434837937355042,0.3758896589279175
1683385920346621400,6.290621337890625,9.988609313964844,-0.20111294090747833,0.31842881441116333
1683385920356631000,6.300631103515625,9.940725326538086,0.026336219161748886,-0.031124621629714966
1683385920366610400,6.3106103515625,9.90241813659668,-0.07900865375995636,-0.586579442024231
1683385920376620300,6.320620361328125,9.825803756713867,-0.7374141216278076,0.031124621629714966
1683385920386630100,6.330630126953125,9.84495735168457,-0.7661445140838623,0.1628057211637497
1683385920396609300,6.340609375,9.801861763000488,-0.8858546018600464,0.26336219906806946
1683385920406619100,6.350619140625,9.6989107131958,-1.4508862495422363,0.047884032130241394
1683385920416629000,6.36062890625,9.528923034667969,-2.0853497982025146,-0.2561795711517334
1683385920426608000,6.370608154296875,9.603142738342285,-1.968033790588379,0.15083470940589905
1683385920436617700,6.38061767578125,9.481039047241211,-2.4875755310058594,0.24181437492370605
1683385920446627600,6.390627685546875,9.516951560974121,-2.3942017555236816,0.038307227194309235
1683385920456606700,6.400606689453125,9.828198432922363,-1.9632453918457031,-0.11971008777618408
1683385920466616600,6.410616455078125,9.768342971801758,-1.5729905366897583,0.002394201699644327
1683385920476626400,6.42062646484375,9.813833236694336,-1.5682021379470825,0.21787235140800476
1683385920486636000,6.430635986328125,9.610325813293457,-2.145204782485962,0.15322890877723694
1683385920496615400,6.440615478515625,9.493009567260742,-2.6001031398773193,0.07182604819536209
1683385920506625300,6.450625244140625,9.394847869873047,-2.875436305999756,0.1149216815829277
1683385920516635000,6.460634765625,9.244012832641602,-3.2369606494903564,0.16759411990642548
1683385920526614000,6.470614013671875,9.23682975769043,-3.1890766620635986,0.2059013396501541
1683385920536623900,6.480623779296875,9.136273384094238,-3.4548330307006836,0.26815059781074524
1683385920546633500,6.490633544921875,9.157821655273438,-3.507505416870117,0.2585737705230713
1683385920556612900,6.50061279296875,9.198522567749023,-3.4763808250427246,0.24181437492370605
1683385920566622700,6.510622802734375,9.232041358947754,-3.428496837615967,0.15562310814857483
1683385920576632600,6.520632568359375,9.332598686218262,-3.4596214294433594,-0.019153613597154617
1683385920586611700,6.53061181640625,9.32541561126709,-3.5936968326568604,-0.19393034279346466
1683385920596621600,6.54062158203125,9.184157371520996,-3.713406801223755,-0.1412578970193863
1683385920606631200,6.550631103515625,8.865729331970215,-4.082113742828369,0.21547815203666687
1683385920616610600,6.560610595703125,8.688557624816895,-4.050989151000977,0.2849099934101105
1683385920626620200,6.5706201171875,8.652645111083984,-4.101267337799072,0.31124621629714966
1683385920636630000,6.580630126953125,8.772355079650879,-4.244919776916504,0.2537853717803955
1683385920646609200,6.590609130859375,8.901641845703125,-4.359841346740723,0.1843535304069519
1683385920656619000,6.600618896484375,8.920795440673828,-4.46518611907959,0.20350714027881622
1683385920666628900,6.61062890625,8.882488250732422,-4.587290287017822,0.17717093229293823
1683385920676608000,6.62060791015625,8.702922821044922,-4.651933670043945,0.20350714027881622
1683385920686617900,6.630617919921875,8.461109161376953,-4.759673118591309,0.2801215946674347
1683385920696627700,6.640627685546875,8.29590892791748,-5.097255229949951,0.38067805767059326
1683385920706606800,6.65060693359375,8.389283180236816,-4.977545261383057,0.26336219906806946
1683385920716616700,6.66061669921875,8.528146743774414,-4.699818134307861,0.17238251864910126
1683385920726626300,6.670626220703125,8.844181060791016,-4.481945514678955,0.08858546614646912
1683385920736636200,6.68063623046875,8.813055992126465,-4.666299343109131,0.2082955539226532
1683385920746615300,6.690615234375,8.83699893951416,-4.819528102874756,0.2346317619085312
1683385920756625200,6.700625244140625,8.81784439086914,-4.874594688415527,0.2322375625371933
1683385920766634800,6.710634765625,8.611943244934082,-4.93923807144165,0.2992752194404602
1683385920776614100,6.7206142578125,8.406042098999023,-4.972756862640381,0.3423708379268646
1683385920786624000,6.7306240234375,8.315062522888184,-5.013458251953125,0.363918662071228
1683385920796633900,6.7406337890625,8.185775756835938,-5.080495834350586,0.4141969084739685
1683385920806613000,6.750613037109375,8.180987358093262,-5.0876784324646,0.43095630407333374
1683385920816622800,6.760622802734375,8.279149055480957,-5.094861030578613,0.4165911078453064
1683385920826632400,6.770632568359375,8.358158111572266,-5.085284233093262,0.3878606855869293
1683385920836611600,6.780611572265625,8.406042098999023,-5.094861030578613,0.3495534360408783
1683385920846621400,6.790621337890625,8.456320762634277,-5.051765441894531,0.31842881441116333
1683385920856631300,6.80063134765625,8.578424453735352,-5.1116204261779785,0.22744916379451752
1683385920866610400,6.8106103515625,8.616731643676758,-5.049371242523193,0.22744916379451752
1683385920876620300,6.820620361328125,8.564059257507324,-5.051765441894531,0.2801215946674347
1683385920886630000,6.8306298828125,8.621520042419434,-4.982333660125732,0.3064578175544739
1683385920896609300,6.840609375,8.60236644744873,-4.967968463897705,0.3280056416988373
1683385920906619100,6.850619140625,8.51138687133789,-4.953603267669678,0.3471592366695404
1683385920916629000,6.86062890625,8.492233276367188,-4.9583916664123535,0.3256114423274994
1683385920926608100,6.870608154296875,8.437167167663574,-5.013458251953125,0.31842881441116333
1683385920936617700,6.88061767578125,8.365341186523438,-5.013458251953125,0.2968810200691223
1683385920946627600,6.890627685546875,8.413225173950195,-5.056553840637207,0.26815059781074524
1683385920956606700,6.900606689453125,8.518569946289062,-5.0254292488098145,0.24660277366638184
1683385920966616600,6.910616455078125,8.559270858764648,-4.982333660125732,0.2298433631658554
1683385920976626400,6.92062646484375,8.669404029846191,-4.970362663269043,0.24420857429504395
1683385920986636000,6.930635986328125,8.671798706054688,-4.946420669555664,0.21308395266532898
1683385920996615400,6.940615478515625,8.635885238647461,-4.922478675842285,0.2346317619085312
1683385921006625300,6.950625244140625,8.62630844116211,-4.944026470184326,0.20350714027881622
1683385921016635000,6.960634765625,8.640673637390137,-4.98472785949707,0.19632454216480255
1683385921026614300,6.9706142578125,8.422801971435547,-5.233725070953369,0.2513911724090576
1683385921036624000,6.980623779296875,8.547300338745117,-4.929661273956299,0.26336219906806946
1683385921046633700,6.9906337890625,8.698134422302246,-4.702212333679199,0.21547815203666687
1683385921056612900,7.00061279296875,8.69095230102539,-4.774038314819336,0.22505496442317963
1683385921066622700,7.010622802734375,8.62630844116211,-4.924872875213623,0.23702596127986908
1683385921076632300,7.02063232421875,8.528146743774414,-4.9152960777282715,0.2849099934101105
1683385921086611700,7.03061181640625,8.506598472595215,-4.934449672698975,0.26336219906806946
1683385921096621600,7.04062158203125,8.485051155090332,-4.946420669555664,0.2537853717803955
1683385921106631400,7.05063134765625,8.413225173950195,-4.95120906829834,0.26575639843940735
1683385921116610300,7.0606103515625,8.398859977722168,-4.941632270812988,0.26336219906806946
1683385921126620200,7.0706201171875,8.47547435760498,-4.900930881500244,0.2298433631658554
1683385921136629800,7.080629638671875,8.573636054992676,-4.867412090301514,0.21787235140800476
1683385921146609200,7.090609130859375,8.604761123657227,-4.807557106018066,0.24420857429504395
1683385921156619000,7.100618896484375,8.631096839904785,-4.7620673179626465,0.26336219906806946
1683385921166628900,7.11062890625,8.688557624816895,-4.627991676330566,0.26336219906806946
1683385921176608000,7.12060791015625,8.923190116882324,-4.211400985717773,0.17238251864910126
1683385921186617900,7.130617919921875,8.765172004699707,-4.58968448638916,0.16998831927776337
1683385921196627700,7.140627685546875,8.576030731201172,-4.721365928649902,0.2298433631658554
1683385921206606800,7.15060693359375,8.564059257507324,-4.644751071929932,0.29209262132644653
1683385921216616700,7.16061669921875,8.611943244934082,-4.563348293304443,0.28730419278144836
1683385921226626300,7.170626220703125,8.741230010986328,-4.477157115936279,0.2537853717803955
1683385921236636200,7.18063623046875,8.791508674621582,-4.422090530395508,0.21547815203666687
1683385921246615300,7.190615234375,8.743624687194824,-4.460397720336914,0.22505496442317963
1683385921256625200,7.200625244140625,8.702922821044922,-4.481945514678955,0.22266076505184174
1683385921266634800,7.210634765625,8.712499618530273,-4.402936935424805,0.20111294090747833
1683385921276614100,7.2206142578125,8.829815864562988,-4.048594951629639,0.15801730751991272
1683385921286624000,7.2306240234375,8.863334655761719,-3.912125587463379,0.16759411990642548
1683385921296633600,7.240633544921875,8.99740982055664,-3.7493197917938232,0.1628057211637497
1683385921306613000,7.250613037109375,9.172186851501465,-3.670311212539673,0.12449848651885986
1683385921316622800,7.260622802734375,9.232041358947754,-3.5960910320281982,0.090979665517807
1683385921326632700,7.2706328125,9.706093788146973,-3.2297780513763428,-0.047884032130241394
1683385921336611800,7.28061181640625,9.107542991638184,-3.35667085647583,0.09816227108240128
1683385921346621400,7.290621337890625,9.296685218811035,-3.1866824626922607,0.1364694982767105
1683385921356631000,7.300631103515625,9.265560150146484,-3.1292216777801514,0.1388636976480484
1683385921366610400,7.3106103515625,9.284713745117188,-3.0334534645080566,0.1149216815829277
1683385921376620300,7.320620361328125,9.354146003723145,-2.9544448852539062,0.16519992053508759
1683385921386630100,7.330630126953125,9.44752025604248,-2.6839001178741455,0.08619125932455063
1683385921396609300,7.340609375,9.473855972290039,-2.561795711517334,0.06464344263076782
1683385921406619100,7.350619140625,9.536105155944824,-2.425326347351074,0.033518824726343155
1683385921416629000,7.36062890625,9.524134635925293,-2.319981336593628,0.038307227194309235
1683385921426608000,7.370608154296875,9.524134635925293,-2.1930887699127197,0.0071826050989329815
1683385921436617700,7.38061767578125,9.50737476348877,-2.255337953567505,-0.13407529890537262
1683385921446627600,7.390627685546875,9.545681953430176,-2.2864625453948975,-0.1867477297782898
1683385921456606700,7.400606689453125,9.617507934570312,-2.027888774871826,-0.14365209639072418
1683385921466616600,7.410616455078125,9.622296333312988,-1.647210717201233,-0.06464344263076782
1683385921476626400,7.42062646484375,9.68694019317627,-1.3239935636520386,0.14365209639072418
1683385921486636000,7.430635986328125,9.68933391571045,-1.2761094570159912,0.31364041566848755
1683385921496615400,7.440615478515625,9.749189376831055,-1.0534487962722778,0.42856210470199585
1683385921506625300,7.450625244140625,9.773131370544434,-0.790086567401886,0.3423708379268646
1683385921516635000,7.460634765625,9.80904483795166,-0.6177040338516235,0.24660277366638184
1683385921526614000,7.470614013671875,9.835380554199219,-0.49559974670410156,0.13407529890537262
1683385921536623900,7.480623779296875,9.801861763000488,-0.8092401623725891,0.05985504388809204
1683385921546633500,7.490633544921875,9.837775230407715,-0.8834604024887085,0.08619125932455063
1683385921556612900,7.50061279296875,12.167332649230957,1.3048399686813354,-0.05746084079146385
1683385921566622700,7.510622802734375,8.755595207214355,2.363077163696289,0.8188169598579407
1683385921576632600,7.520632568359375,11.12346076965332,0.17717093229293823,0.028730420395731926
1683385921586611700,7.53061181640625,9.121908187866211,-0.9672574996948242,0.05985504388809204
1683385921596621600,7.54062158203125,9.567230224609375,0.011971008032560349,0.023942016065120697
1683385921606631200,7.550631103515625,10.103530883789062,-0.05985504388809204,0.16998831927776337
1683385921616610600,7.560610595703125,9.78989028930664,-0.031124621629714966,0.07422025501728058
1683385921626620200,7.5706201171875,9.263166427612305,-0.023942016065120697,0.033518824726343155
1683385921636630000,7.580630126953125,9.864110946655273,0.28969839215278625,-0.07661445438861847
1683385921646609200,7.590609130859375,10.20648193359375,-0.20350714027881622,-0.07422025501728058
1683385921656619000,7.600618896484375,9.797073364257812,-0.40940847992897034,0.12928688526153564
1683385921666628900,7.61062890625,9.473855972290039,-0.31603461503982544,0.38067805767059326
1683385921676608000,7.62060791015625,9.864110946655273,-0.2059013396501541,0.26096799969673157
1683385921686617900,7.630617919921875,10.005369186401367,-0.18914192914962769,0.09816227108240128
1683385921696627700,7.640627685546875,9.569623947143555,-0.16759411990642548,0.11252748221158981
1683385921706606800,7.65060693359375,9.62947940826416,-0.10773907601833344,0.1173158809542656
1683385921716616700,7.66061669921875,9.861717224121094,-0.13168109953403473,0.24660277366638184
1683385921726626300,7.670626220703125,9.825803756713867,-0.10295066982507706,0.2322375625371933
1683385921736636200,7.68063623046875,9.782708168029785,-0.1412578970193863,0.40701428055763245
1683385921746615300,7.690615234375,9.854534149169922,-0.021547814831137657,0.0454898327589035
1683385921756625200,7.700625244140625,9.816226959228516,0.08619125932455063,-0.22505496442317963
1683385921766634800,7.710634765625,9.648633003234863,-0.22744916379451752,-0.2585737705230713
1683385921776614100,7.7206142578125,9.730035781860352,-0.28969839215278625,-0.19393034279346466
1683385921786624000,7.7306240234375,9.785101890563965,-0.12210428714752197,0.09816227108240128
1683385921796633900,7.7406337890625,9.725247383117676,-0.12210428714752197,0.10055647045373917
1683385921806613000,7.750613037109375,9.768342971801758,-0.13407529890537262,0.0694318488240242
1683385921816622800,7.760622802734375,9.804255485534668,-0.1173158809542656,0.026336219161748886
1683385921826632400,7.770632568359375,9.792284965515137,-0.12689268589019775,0.009576806798577309
1683385921836611600,7.780611572265625,9.641449928283691,-0.11971008777618408,0.0071826050989329815
1683385921846621400,7.790621337890625,9.75637149810791,-0.1412578970193863,0.021547814831137657
1683385921856631300,7.80063134765625,10.08437728881836,-0.13407529890537262,0.06464344263076782
1683385921866610400,7.8106103515625,9.854534149169922,-0.17956513166427612,0.016759412363171577
1683385921876620300,7.820620361328125,9.782708168029785,-0.9169792532920837,-0.8667010068893433
1683385921886630000,7.8306298828125,9.746794700622559,-1.0438719987869263,-1.0845733880996704
1683385921896609300,7.840609375,9.916783332824707,-1.036689281463623,-0.6823474764823914
1683385921906619100,7.850619140625,9.564835548400879,-0.16519992053508759,0.13407529890537262
1683385921916629000,7.86062890625,9.828198432922363,0.47644615173339844,0.689530074596405
1683385921926608100,7.870608154296875,9.785101890563965,0.5051765441894531,0.629675030708313
1683385921936617700,7.88061767578125,9.919178009033203,0.12210428714752197,0.2968810200691223
1683385921946627600,7.890627685546875,9.44991397857666,-0.023942016065120697,0.19393034279346466
1683385921956606700,7.900606689453125,9.825803756713867,0.09816227108240128,0.26815059781074524
1683385921966616600,7.910616455078125,9.859322547912598,0.28969839215278625,0.6727706789970398
1683385921976626400,7.92062646484375,9.782708168029785,0.5602431893348694,0.6847416758537292
1683385921986636000,7.930635986328125,9.619902610778809,-0.12689268589019775,0.011971008032560349
1683385921996615400,7.940615478515625,9.849745750427246,-0.13168109953403473,0.0694318488240242
1683385922006625300,7.950625244140625,9.952696800231934,-0.1173158809542656,0.07182604819536209
1683385922016635000,7.960634765625,9.787496566772461,-0.11013327538967133,0.10534487664699554
1683385922026614300,7.9706142578125,9.828198432922363,-0.1412578970193863,0.08379705995321274
1683385922036624000,7.980623779296875,10.163386344909668,-0.14844051003456116,0.06464344263076782
1683385922046633700,7.9906337890625,10.0580415725708,-0.37828385829925537,0.6320692300796509
1683385922056612900,8.00061279296875,10.196905136108398,-0.33279404044151306,1.2545616626739502
1683385922066622700,8.010622802734375,10.426748275756836,-0.17238251864910126,0.7158663272857666
1683385922076632300,8.02063232421875,10.395624160766602,0.004788403399288654,-0.12689268589019775
1683385922086611700,8.03061181640625,9.861717224121094,0.15322890877723694,-0.6823474764823914
1683385922096621600,8.04062158203125,9.32302188873291,0.11971008777618408,-0.8092401623725891
1683385922106631400,8.05063134765625,9.459490776062012,-0.1604115068912506,0.6488286852836609
1683385922116610300,8.0606103515625,9.708487510681152,-0.17477671802043915,0.6440402865409851
1683385922126620200,8.0706201171875,9.799467086791992,-0.1412578970193863,0.6560112833976746
1683385922136630000,8.080630126953125,9.773131370544434,-0.19153612852096558,1.015141487121582
1683385922146609200,8.090609130859375,9.62947940826416,-0.24420857429504395,1.5083470344543457
1683385922156619000,8.100618896484375,9.694122314453125,-0.23942017555236816,1.5849615335464478
1683385922166628900,8.11062890625,9.890447616577148,-0.2082955539226532,1.3551181554794312
1683385922176608000,8.12060791015625,10.129867553710938,-0.1843535304069519,1.2832920551300049
1683385922186617900,8.130617919921875,10.496180534362793,-0.2753331959247589,1.4652514457702637
1683385922196627700,8.140627685546875,10.915165901184082,-0.26575639843940735,1.623268723487854
1683385922206606800,8.15060693359375,10.951078414916992,-0.17717093229293823,1.8746598958969116
1683385922216616700,8.16061669921875,11.30302619934082,-0.08619125932455063,2.22660756111145
1683385922226626300,8.170626220703125,10.374075889587402,0.2106897532939911,1.3886369466781616
1683385922236636200,8.18063623046875,9.378087997436523,0.40701428055763245,1.1444283723831177
1683385922246615300,8.190615234375,8.695740699768066,-0.026336219161748886,1.9057846069335938
1683385922256625200,8.200625244140625,8.224082946777344,-0.45489832758903503,2.9017724990844727
1683385922266634800,8.210634765625,8.020575523376465,-0.5123591423034668,3.93367338180542
1683385922276614100,8.2206142578125,7.6782050132751465,-0.524330198764801,4.307168960571289
1683385922286624000,8.2306240234375,7.953537940979004,-0.5961562395095825,4.771644115447998
1683385922296633600,8.240633544921875,8.015787124633789,-0.4668693244457245,4.69024133682251
1683385922306613000,8.250613037109375,8.65982723236084,-0.26096799969673157,4.355052947998047
1683385922316622800,8.260622802734375,9.133879661560059,-0.07661445438861847,3.7421371936798096
1683385922326632700,8.2706328125,9.679757118225098,0.10773907601833344,2.9903578758239746
1683385922336611800,8.28061181640625,10.165780067443848,0.272938996553421,2.1739351749420166
1683385922346621400,8.290621337890625,10.153809547424316,0.5147533416748047,2.0590133666992188
1683385922356631000,8.300631103515625,10.381258964538574,0.44771572947502136,2.1547815799713135
1683385922366610400,8.3106103515625,9.351752281188965,-0.11971008777618408,4.395754337310791
1683385922376620300,8.320620361328125,8.939949035644531,-0.12210428714752197,4.477157115936279
1683385922386630100,8.330630126953125,8.71728801727295,-0.13407529890537262,4.73573112487793
1683385922396609300,8.340609375,8.169015884399414,-0.33997663855552673,4.975151062011719
1683385922406619100,8.350619140625,7.706935405731201,-1.01753568649292,5.583278179168701
1683385922416629000,8.36062890625,7.474697589874268,-0.7374141216278076,5.5760955810546875
1683385922426608000,8.370608154296875,7.790732383728027,-0.028730420395731926,5.219359874725342
1683385922436617700,8.38061767578125,8.061277389526367,0.3998316824436188,4.910507678985596
1683385922446627600,8.390627685546875,7.972691535949707,0.5410895943641663,5.260061264038086
1683385922456606700,8.400606689453125,7.450755596160889,-0.0071826050989329815,5.78678560256958
1683385922466616600,8.410616455078125,7.275979042053223,-0.19393034279346466,5.868188381195068
1683385922476626400,8.42062646484375,7.405265808105469,-0.1628057211637497,5.925649166107178
1683385922486636000,8.430635986328125,7.649474620819092,-0.2968810200691223,5.96874475479126
1683385922496615400,8.440615478515625,7.8314337730407715,-0.30885201692581177,6.069301128387451
1683385922506625300,8.450625244140625,7.965508937835693,0.0694318488240242,6.14831018447876
1683385922516635000,8.460634765625,7.979874134063721,0.6105214357376099,6.162675380706787
1683385922526614000,8.470614013671875,7.467514991760254,0.028730420395731926,6.339846134185791
1683385922536623900,8.480623779296875,7.010222434997559,-0.035913024097681046,6.452373504638672
1683385922546633500,8.490633544921875,7.196970462799072,0.42616790533065796,5.829881191253662
1683385922556612900,8.50061279296875,7.201758861541748,0.19871874153614044,5.805939197540283
1683385922566622700,8.510622802734375,7.058106422424316,-0.09576806426048279,6.162675380706787
1683385922576632600,8.520632568359375,6.7708024978637695,-0.3519476354122162,6.694188117980957
1683385922586611700,8.53061181640625,6.509834289550781,-0.42856210470199585,7.465120792388916
1683385922596621600,8.54062158203125,6.4164605140686035,-0.5482721924781799,7.8314337730407715
1683385922606631200,8.550631103515625,7.29034423828125,-0.035913024097681046,6.62236213684082
1683385922616610600,8.560610595703125,6.947973251342773,-0.12210428714752197,6.7492547035217285
1683385922626620200,8.5706201171875,6.687005519866943,-0.1173158809542656,6.576871871948242
1683385922636630000,8.580630126953125,7.469909191131592,0.22266076505184174,5.537788391113281
1683385922646609200,8.590609130859375,7.7428483963012695,0.1149216815829277,5.633556365966797
1683385922656619000,8.600618896484375,7.496245384216309,-0.11971008777618408,5.913678169250488
1683385922666628900,8.61062890625,6.98628044128418,-0.4908113479614258,6.797138690948486
1683385922676608000,8.62060791015625,6.521805286407471,-0.4429273009300232,7.644686222076416
1683385922686617900,8.630617919921875,6.289567947387695,-0.033518824726343155,8.664615631103516
1683385922696627700,8.640627685546875,6.885724067687988,-0.304063618183136,7.850587368011475
1683385922706606800,8.65060693359375,7.86734676361084,0.011971008032560349,6.756437301635742
1683385922716616700,8.66061669921875,7.539340972900391,-0.004788403399288654,6.785167694091797
1683385922726626300,8.670626220703125,6.821080684661865,-0.17238251864910126,6.959944248199463
1683385922736636200,8.68063623046875,5.9974751472473145,-0.21308395266532898,7.070077419281006
1683385922746615300,8.690615234375,5.592854976654053,-0.16998831927776337,7.010222434997559
1683385922756625200,8.700625244140625,5.906495571136475,-0.09816227108240128,6.936002254486084
1683385922766634800,8.710634765625,6.279991149902344,-0.05267243832349777,6.88332986831665
1683385922776614100,8.7206142578125,6.768408298492432,0.0454898327589035,6.670246124267578
1683385922786624000,8.7306240234375,6.9240312576293945,-0.023942016065120697,6.550535678863525
1683385922796633900,8.7406337890625,6.955155849456787,-0.15083470940589905,7.0557122230529785
1683385922806613000,8.750613037109375,6.31829833984375,-0.19871874153614044,7.618350028991699
1683385922816622800,8.760622802734375,6.13633918762207,-0.2082955539226532,7.754819393157959
1683385922826632400,8.770632568359375,5.966350555419922,-0.2825157940387726,7.812280178070068
1683385922836611600,8.780611572265625,6.842628479003906,-0.09576806426048279,7.0126166343688965
1683385922846621400,8.790621337890625,7.115567684173584,-0.09576806426048279,6.971915245056152
1683385922856631300,8.80063134765625,7.3023152351379395,-0.11013327538967133,6.938396453857422
1683385922866610400,8.8106103515625,7.283161640167236,-0.11013327538967133,6.9240312576293945
1683385922876620300,8.820620361328125,7.225700855255127,-0.038307227194309235,6.916848659515381
1683385922886630000,8.8306298828125,6.780379295349121,-0.1628057211637497,6.988674640655518
1683385922896609300,8.840609375,6.466738700866699,-0.14844051003456116,7.01979923248291
1683385922906619100,8.850619140625,6.344634532928467,-0.1173158809542656,7.06528902053833
1683385922916629000,8.86062890625,6.428431510925293,-0.10295066982507706,7.036558628082275
1683385922926608100,8.870608154296875,6.598419666290283,-0.10773907601833344,7.015010833740234
1683385922936617700,8.88061767578125,6.658275127410889,-0.10295066982507706,7.038952827453613
1683385922946627600,8.890627685546875,6.6846113204956055,-0.10055647045373917,7.038952827453613
1683385922956606700,8.900606689453125,6.658275127410889,-0.08140286058187485,7.060500621795654
1683385922966616600,8.910616455078125,6.658275127410889,-0.08619125932455063,7.062894821166992
1683385922976626400,8.92062646484375,6.737283706665039,-0.10055647045373917,7.046135425567627
1683385922986636000,8.930635986328125,6.840234279632568,-0.10773907601833344,7.029376029968262
1683385922996615400,8.940615478515625,6.88332986831665,-0.11971008777618408,6.976703643798828
1683385923006625300,8.950625244140625,6.967126846313477,-0.1149216815829277,6.947973251342773
1683385923016635000,8.960634765625,6.938396453857422,-0.10295066982507706,6.950367450714111
1683385923026614300,8.9706142578125,6.84981107711792,-0.10773907601833344,6.962338447570801
1683385923036624000,8.980623779296875,6.710947513580322,-0.10773907601833344,6.943184852600098
1683385923046633700,8.9906337890625,6.782773494720459,-0.11971008777618408,6.912060260772705
1683385923056612900,9.00061279296875,6.830657482147217,-0.10055647045373917,6.919242858886719
1683385923066622700,9.010622802734375,6.878541469573975,-0.09576806426048279,6.916848659515381
1683385923076632300,9.02063232421875,6.900089263916016,-0.09576806426048279,6.888118267059326
1683385923086611700,9.03061181640625,6.92881965637207,-0.10773907601833344,6.878541469573975
1683385923096621600,9.04062158203125,6.916848659515381,-0.1173158809542656,6.938396453857422
1683385923106631400,9.05063134765625,6.919242858886719,-0.11252748221158981,6.957550048828125
1683385923116610300,9.0606103515625,6.936002254486084,-0.10055647045373917,6.9240312576293945
1683385923126620200,9.0706201171875,6.909666061401367,-0.12689268589019775,6.921637058258057
1683385923136630000,9.080630126953125,6.9455790519714355,-0.09576806426048279,6.916848659515381
1683385923146609200,9.090609130859375,6.998251438140869,-0.1149216815829277,6.909666061401367
1683385923156619000,9.100618896484375,6.98628044128418,-0.10773907601833344,6.866570472717285
1683385923166628900,9.11062890625,6.888118267059326,-0.09816227108240128,6.88332986831665
1683385923176608000,9.12060791015625,6.813898086547852,-0.0933738648891449,6.907271862030029
1683385923186617900,9.130617919921875,6.830657482147217,-0.10773907601833344,6.868964672088623
1683385923196627700,9.140627685546875,6.840234279632568,-0.10055647045373917,6.864176273345947
1683385923206606800,9.15060693359375,6.890512466430664,-0.11252748221158981,6.847416877746582
1683385923216616700,9.16061669921875,6.9024834632873535,-0.1149216815829277,6.866570472717285
1683385923226626300,9.170626220703125,6.950367450714111,-0.10295066982507706,6.845022678375244
1683385923236636200,9.18063623046875,6.933608055114746,-0.12210428714752197,6.84981107711792
1683385923246615300,9.190615234375,6.981492042541504,-0.11971008777618408,6.871358871459961
1683385923256625200,9.200625244140625,7.029376029968262,-0.09576806426048279,6.868964672088623
1683385923266634800,9.210634765625,7.005434036254883,-0.10773907601833344,6.866570472717285
1683385923276614100,9.2206142578125,6.916848659515381,-0.10534487664699554,6.8809356689453125
1683385923286624000,9.2306240234375,6.84981107711792,-0.08379705995321274,6.868964672088623
1683385923296633600,9.240633544921875,6.789956092834473,-0.0933738648891449,6.8593878746032715
1683385923306613000,9.250613037109375,6.830657482147217,-0.090979665517807,6.847416877746582
1683385923316622800,9.260622802734375,6.691793918609619,-0.09816227108240128,6.866570472717285
1683385923326632700,9.2706328125,6.737283706665039,-0.09816227108240128,6.8378400802612305
1683385923336611800,9.28061181640625,6.627150535583496,-0.10773907601833344,6.8043212890625
1683385923346621400,9.290621337890625,6.617573261260986,-0.12689268589019775,6.775590896606445
1683385923356631000,9.300631103515625,6.5912370681762695,-0.1604115068912506,6.742072105407715
1683385923366610400,9.3106103515625,6.746860504150391,-0.09576806426048279,6.694188117980957
1683385923376620300,9.320620361328125,6.835445880889893,-0.1149216815829277,6.631938934326172
1683385923386630100,9.330630126953125,6.852205276489258,-0.1412578970193863,6.550535678863525
1683385923396609300,9.340609375,7.105990409851074,-0.12689268589019775,6.445190906524658
1683385923406619100,9.350619140625,7.445967197418213,-0.043095629662275314,6.339846134185791
1683385923416629000,9.36062890625,7.570465564727783,-0.047884032130241394,6.244078159332275
1683385923426608000,9.370608154296875,7.5201873779296875,-0.10055647045373917,6.157886981964111
1683385923436617700,9.38061767578125,7.493851184844971,-0.1173158809542656,6.042964935302734
1683385923446627600,9.390627685546875,7.486668586730957,-0.09576806426048279,5.978321552276611
1683385923456606700,9.400606689453125,7.5201873779296875,-0.11013327538967133,5.892130374908447
1683385923466616600,9.410616455078125,7.6351094245910645,-0.1173158809542656,5.719748020172119
1683385923476626400,9.42062646484375,7.728483200073242,-0.12210428714752197,5.571307182312012
1683385923486636000,9.430635986328125,7.762001991271973,-0.12689268589019775,5.456385612487793
1683385923496615400,9.440615478515625,7.762001991271973,-0.14365209639072418,5.327098846435547
1683385923506625300,9.450625244140625,7.94635534286499,-0.1388636976480484,5.128379821777344
1683385923516635000,9.460634765625,8.233659744262695,-0.13168109953403473,4.9799394607543945
1683385923526614000,9.470614013671875,8.523358345031738,-0.11971008777618408,4.819528102874756
1683385923536623900,9.480623779296875,8.868123054504395,-0.09816227108240128,4.60165548324585
1683385923546633500,9.490633544921875,9.040505409240723,-0.090979665517807,4.41969633102417
1683385923556612900,9.50061279296875,8.954314231872559,-0.08858546614646912,4.338293552398682
1683385923566622700,9.510622802734375,8.882488250732422,-0.10295066982507706,4.223371982574463
1683385923576632600,9.520632568359375,8.916007041931152,-0.12210428714752197,4.039018154144287
1683385923586611700,9.53061181640625,9.162610054016113,-0.12449848651885986,3.8498764038085938
1683385923596621600,9.54062158203125,9.346963882446289,-0.1173158809542656,3.773261785507202
1683385923606631200,9.550631103515625,9.32541561126709,-0.1364694982767105,3.6296098232269287
1683385923616610600,9.560610595703125,9.191340446472168,-0.1364694982767105,3.5242648124694824
1683385923626620200,9.5706201171875,9.002198219299316,-0.15083470940589905,3.5218706130981445
1683385923636630000,9.580630126953125,8.827422142028809,-0.10055647045373917,3.397372245788574
1683385923646609200,9.590609130859375,8.20492935180664,-0.11971008777618408,3.383007049560547
1683385923656619000,9.600618896484375,8.370129585266113,-0.11971008777618408,3.2417490482330322
1683385923666628900,9.61062890625,9.097966194152832,-0.2106897532939911,3.2417490482330322
1683385923676608000,9.62060791015625,9.373299598693848,-0.272938996553421,3.2417490482330322
1683385923686617900,9.630617919921875,9.478644371032715,-0.29209262132644653,2.918531894683838
1683385923696627700,9.640627685546875,9.713275909423828,-0.19632454216480255,2.3319525718688965
1683385923706606800,9.65060693359375,9.86889934539795,-0.023942016065120697,1.4460978507995605
1683385923716616700,9.66061669921875,10.132261276245117,0.10295066982507706,0.5793967843055725
1683385923726626300,9.670626220703125,9.931148529052734,-0.15322890877723694,1.7310078144073486
1683385923736636200,9.68063623046875,9.622296333312988,-0.1388636976480484,1.5658079385757446
1683385923746615300,9.690615234375,9.545681953430176,-0.1173158809542656,1.4101848602294922
1683385923756625200,9.700625244140625,9.684545516967773,-0.12210428714752197,1.259350061416626
1683385923766634800,9.710634765625,9.780313491821289,-0.20350714027881622,1.2880805730819702
1683385923776614100,9.7206142578125,9.75637149810791,-0.43335050344467163,1.6208745241165161
1683385923786624000,9.7306240234375,9.749189376831055,-0.629675030708313,1.9608511924743652
1683385923796633900,9.7406337890625,9.610325813293457,-0.5793967843055725,2.0925323963165283
1683385923806613000,9.750613037109375,9.59835433959961,-0.4141969084739685,1.5155296325683594
1683385923816622800,9.760622802734375,9.605537414550781,-0.16519992053508759,0.751779317855835
1683385923826632400,9.770632568359375,10.271124839782715,0.10773907601833344,-0.6703764796257019
1683385923836611600,9.780611572265625,14.144943237304688,0.545877993106842,-2.1356279850006104
1683385923846621400,9.790621337890625,10.034099578857422,0.5315127968788147,-3.3231520652770996
1683385923856631300,9.80063134765625,10.06043529510498,-0.12689268589019775,0.07661445438861847
1683385923866610400,9.8106103515625,9.543288230895996,-0.11013327538967133,0.08619125932455063
1683385923876620300,9.820620361328125,9.720458984375,-0.12689268589019775,0.07661445438861847
1683385923886630000,9.8306298828125,9.873687744140625,-0.11971008777618408,-0.021547814831137657
1683385923896609300,9.840609375,9.830592155456543,-0.1364694982767105,0.031124621629714966
1683385923906619100,9.850619140625,9.526528358459473,-0.11971008777618408,0.023942016065120697
1683385923916629000,9.86062890625,9.856928825378418,-0.11252748221158981,0.05027823522686958
1683385923926608100,9.870608154296875,9.856928825378418,-0.10534487664699554,0.05506663769483566
1683385923936617700,9.88061767578125,9.840168952941895,-0.11013327538967133,0.08140286058187485
1683385923946627600,9.890627685546875,9.59835433959961,-0.0933738648891449,0.07422025501728058
1683385923956606700,9.900606689453125,9.768342971801758,-0.13168109953403473,0.021547814831137657
1683385923966616600,9.910616455078125,9.852140426635742,-0.12449848651885986,0.0071826050989329815
1683385923976626400,9.92062646484375,9.710882186889648,-0.11013327538967133,0
1683385923986636000,9.930635986328125,9.672574996948242,-0.12210428714752197,0.05027823522686958
1683385923996615400,9.940615478515625,9.861717224121094,-0.11971008777618408,0.07182604819536209
1683385924006625300,9.950625244140625,9.801861763000488,-0.1173158809542656,0.06224924325942993
1683385924016635000,9.960634765625,9.792284965515137,-0.12928688526153564,0.043095629662275314
1683385924026614300,9.9706142578125,9.761159896850586,-0.10773907601833344,0.0454898327589035
1683385924036624000,9.980623779296875,9.799467086791992,-0.11252748221158981,0.021547814831137657
1683385924046633700,9.9906337890625,9.737217903137207,-0.13407529890537262,0.011971008032560349
1683385924056612900,10.00061279296875,9.746794700622559,-0.09816227108240128,0.028730420395731926
1683385924066622700,10.010622802734375,9.780313491821289,-0.090979665517807,0.043095629662275314
1683385924076632300,10.02063232421875,9.804255485534668,-0.12210428714752197,0.05506663769483566
1683385924086611700,10.03061181640625,9.782708168029785,-0.13407529890537262,0.05506663769483566
1683385924096621600,10.04062158203125,9.751583099365234,-0.13168109953403473,0.05027823522686958
1683385924106631400,10.05063134765625,9.758766174316406,-0.11013327538967133,0.035913024097681046
1683385924116610600,10.060610595703125,9.713275909423828,-0.11252748221158981,0.031124621629714966
1683385924126620200,10.0706201171875,9.804255485534668,-0.11971008777618408,0.05027823522686958
1683385924136630000,10.080630126953125,9.792284965515137,-0.12449848651885986,0.047884032130241394
1683385924146609200,10.090609130859375,9.78989028930664,-0.10534487664699554,0.06464344263076782
1683385924156619000,10.100618896484375,9.751583099365234,-0.1149216815829277,0.06224924325942993
1683385924166628900,10.11062890625,9.84256362915039,-0.09816227108240128,0.035913024097681046
1683385924176608000,10.12060791015625,9.77791976928711,-0.1149216815829277,0.038307227194309235
1683385924186617900,10.130617919921875,9.701305389404297,-0.11971008777618408,0.026336219161748886
1683385924196627700,10.140627685546875,9.765948295593262,-0.1173158809542656,0.019153613597154617
1683385924206606800,10.15060693359375,9.794678688049316,-0.12449848651885986,0.035913024097681046
1683385924216616700,10.16061669921875,9.770736694335938,-0.11971008777618408,0.05027823522686958
1683385924226626600,10.17062646484375,9.710882186889648,-0.1173158809542656,0.05506663769483566
1683385924236636200,10.18063623046875,9.799467086791992,-0.09816227108240128,0.047884032130241394
1683385924246615300,10.190615234375,9.840168952941895,-0.1173158809542656,0.023942016065120697
1683385924256625200,10.200625244140625,9.758766174316406,-0.0933738648891449,0.028730420395731926
1683385924266634800,10.210634765625,9.732429504394531,-0.11252748221158981,0.05746084079146385
1683385924276614100,10.2206142578125,9.785101890563965,-0.10534487664699554,0.05746084079146385
1683385924286624000,10.2306240234375,9.835380554199219,-0.10295066982507706,0.05506663769483566
1683385924296633600,10.240633544921875,9.81143856048584,-0.12210428714752197,0.06703764945268631
1683385924306613000,10.250613037109375,9.730035781860352,-0.11252748221158981,0.038307227194309235
1683385924316622800,10.260622802734375,9.751583099365234,-0.13407529890537262,0.021547814831137657
1683385924326632700,10.2706328125,9.799467086791992,-0.1364694982767105,0.016759412363171577
1683385924336611800,10.28061181640625,9.742006301879883,-0.1149216815829277,0.021547814831137657
1683385924346621400,10.290621337890625,9.725247383117676,-0.1412578970193863,0.026336219161748886
1683385924356631000,10.300631103515625,9.78989028930664,-0.11252748221158981,0.05506663769483566
1683385924366610400,10.3106103515625,9.765948295593262,-0.12449848651885986,0.06224924325942993
1683385924376620300,10.320620361328125,9.804255485534668,-0.10055647045373917,0.047884032130241394
1683385924386630000,10.3306298828125,9.708487510681152,-0.10773907601833344,0.033518824726343155
1683385924396609300,10.340609375,9.813833236694336,-0.10534487664699554,0.038307227194309235
1683385924406619100,10.350619140625,9.775525093078613,-0.0933738648891449,0.023942016065120697
1683385924416629000,10.36062890625,9.78989028930664,-0.11971008777618408,0.033518824726343155
1683385924426608000,10.370608154296875,9.770736694335938,-0.12210428714752197,0.07422025501728058
1683385924436617700,10.38061767578125,9.806650161743164,-0.0933738648891449,0.038307227194309235
1683385924446627600,10.390627685546875,9.765948295593262,-0.1173158809542656,0.06464344263076782
1683385924456606700,10.400606689453125,9.737217903137207,-0.12449848651885986,0.035913024097681046
1683385924466616600,10.410616455078125,9.794678688049316,-0.1149216815829277,0.038307227194309235
1683385924476626400,10.42062646484375,9.749189376831055,-0.12210428714752197,0.016759412363171577
1683385924486636000,10.430635986328125,9.765948295593262,-0.1149216815829277,0.016759412363171577
1683385924496615400,10.440615478515625,9.75397777557373,-0.1149216815829277,0.035913024097681046
1683385924506625300,10.450625244140625,9.804255485534668,-0.1173158809542656,0.0454898327589035
1683385924516635000,10.460634765625,9.775525093078613,-0.10773907601833344,0.031124621629714966
1683385924526614000,10.470614013671875,9.744400978088379,-0.10055647045373917,0.040701430290937424
1683385924536623900,10.480623779296875,9.77791976928711,-0.10534487664699554,0.033518824726343155
1683385924546633500,10.490633544921875,9.765948295593262,-0.10534487664699554,0.035913024097681046
1683385924556612900,10.50061279296875,9.792284965515137,-0.11252748221158981,0.05027823522686958
1683385924566622700,10.510622802734375,9.734824180603027,-0.11252748221158981,0.047884032130241394
1683385924576632600,10.520632568359375,9.787496566772461,-0.11252748221158981,0.05506663769483566
1683385924586611700,10.53061181640625,9.785101890563965,-0.11971008777618408,0.040701430290937424
1683385924596621600,10.54062158203125,9.806650161743164,-0.13407529890537262,0.038307227194309235
1683385924606631200,10.550631103515625,9.732429504394531,-0.12928688526153564,0.033518824726343155
1683385924616610600,10.560610595703125,9.761159896850586,-0.11252748221158981,0.028730420395731926
1683385924626620200,10.5706201171875,9.768342971801758,-0.11013327538967133,0.028730420395731926
1683385924636630000,10.580630126953125,9.763554573059082,-0.12210428714752197,0.038307227194309235
1683385924646609400,10.590609375,9.746794700622559,-0.10773907601833344,0.0454898327589035
1683385924656619000,10.600618896484375,9.77791976928711,-0.1173158809542656,0.038307227194309235
1683385924666628900,10.61062890625,9.804255485534668,-0.08858546614646912,0.028730420395731926
1683385924676608000,10.62060791015625,9.773131370544434,-0.09816227108240128,0.035913024097681046
1683385924686617900,10.630617919921875,9.770736694335938,-0.11252748221158981,0.040701430290937424
1683385924696627700,10.640627685546875,9.773131370544434,-0.12449848651885986,0.0454898327589035
1683385924706606800,10.65060693359375,9.794678688049316,-0.1149216815829277,0.043095629662275314
1683385924716616700,10.66061669921875,9.785101890563965,-0.10773907601833344,0.05267243832349777
1683385924726626600,10.67062646484375,9.751583099365234,-0.090979665517807,0.047884032130241394
1683385924736636200,10.68063623046875,9.761159896850586,-0.1173158809542656,0.040701430290937424
1683385924746615300,10.690615234375,9.785101890563965,-0.10534487664699554,0.021547814831137657
1683385924756625200,10.700625244140625,9.77791976928711,-0.12210428714752197,0.028730420395731926
1683385924766634800,10.710634765625,9.732429504394531,-0.12449848651885986,0.038307227194309235
1683385924776614100,10.7206142578125,9.770736694335938,-0.12689268589019775,0.031124621629714966
1683385924786624000,10.7306240234375,9.792284965515137,-0.12928688526153564,0.021547814831137657
1683385924796633900,10.7406337890625,9.780313491821289,-0.1149216815829277,0.023942016065120697
1683385924806613000,10.750613037109375,9.75637149810791,-0.1149216815829277,0.035913024097681046
1683385924816622800,10.760622802734375,9.75637149810791,-0.12449848651885986,0.043095629662275314
1683385924826632400,10.770632568359375,9.799467086791992,-0.10534487664699554,0.035913024097681046
1683385924836611600,10.780611572265625,9.785101890563965,-0.11013327538967133,0.035913024097681046
1683385924846621400,10.790621337890625,9.773131370544434,-0.10773907601833344,0.05506663769483566
1683385924856631300,10.80063134765625,9.75637149810791,-0.10055647045373917,0.05506663769483566
1683385924866610400,10.8106103515625,9.78989028930664,-0.1173158809542656,0.047884032130241394
1683385924876620300,10.820620361328125,9.744400978088379,-0.1149216815829277,0.05506663769483566
1683385924886630000,10.8306298828125,9.75637149810791,-0.1173158809542656,0.040701430290937424
1683385924896609300,10.840609375,9.782708168029785,-0.10534487664699554,0.040701430290937424
1683385924906619100,10.850619140625,9.799467086791992,-0.0933738648891449,0.019153613597154617
1683385924916629000,10.86062890625,9.775525093078613,-0.11013327538967133,0.035913024097681046
1683385924926608100,10.870608154296875,9.765948295593262,-0.08140286058187485,0.05985504388809204
1683385924936617700,10.88061767578125,9.770736694335938,-0.10295066982507706,0.047884032130241394
1683385924946627600,10.890627685546875,9.77791976928711,-0.10773907601833344,0.043095629662275314
1683385924956606700,10.900606689453125,9.77791976928711,-0.10534487664699554,0.040701430290937424
1683385924966616600,10.910616455078125,9.765948295593262,-0.1149216815829277,0.040701430290937424
1683385924976626200,10.920626220703125,9.763554573059082,-0.1173158809542656,0.040701430290937424
1683385924986636000,10.930635986328125,9.75637149810791,-0.11013327538967133,0.043095629662275314
1683385924996615400,10.940615478515625,9.780313491821289,-0.13168109953403473,0.028730420395731926
1683385925006625300,10.950625244140625,9.792284965515137,-0.11971008777618408,0.05027823522686958
1683385925016635000,10.960634765625,9.75397777557373,-0.10773907601833344,0.047884032130241394
1683385925026614300,10.9706142578125,9.775525093078613,-0.1388636976480484,0.040701430290937424
1683385925036624000,10.980623779296875,9.749189376831055,-0.09576806426048279,0.035913024097681046
1683385925046633700,10.9906337890625,9.775525093078613,-0.10055647045373917,0.033518824726343155
1683385925056612900,11.00061279296875,9.751583099365234,-0.08858546614646912,0.040701430290937424
1683385925066622700,11.010622802734375,9.768342971801758,-0.09816227108240128,0.031124621629714966
1683385925076632300,11.02063232421875,9.77791976928711,-0.10295066982507706,0.033518824726343155
1683385925086611700,11.03061181640625,9.765948295593262,-0.11013327538967133,0.0454898327589035
1683385925096621600,11.04062158203125,9.77791976928711,-0.10534487664699554,0.0454898327589035
1683385925106631400,11.05063134765625,9.782708168029785,-0.12210428714752197,0.043095629662275314
1683385925116610600,11.060610595703125,9.782708168029785,-0.11971008777618408,0.031124621629714966
1683385925126620200,11.0706201171875,9.782708168029785,-0.12449848651885986,0.031124621629714966
1683385925136630000,11.080630126953125,9.77791976928711,-0.12449848651885986,0.047884032130241394
1683385925146609400,11.090609375,9.765948295593262,-0.12210428714752197,0.031124621629714966
1683385925156619000,11.100618896484375,9.761159896850586,-0.08858546614646912,0.031124621629714966
1683385925166628900,11.11062890625,9.78989028930664,-0.10534487664699554,0.038307227194309235
1683385925176608000,11.12060791015625,9.775525093078613,-0.10773907601833344,0.028730420395731926
1683385925186617900,11.130617919921875,9.765948295593262,-0.13168109953403473,0.05267243832349777
1683385925196627700,11.140627685546875,9.761159896850586,-0.11971008777618408,0.031124621629714966
1683385925206606800,11.15060693359375,9.828198432922363,-0.12928688526153564,0.0454898327589035
1683385925216616700,11.16061669921875,9.667786598205566,-0.10295066982507706,0.019153613597154617
1683385925226626600,11.17062646484375,9.854534149169922,-0.1173158809542656,0.0454898327589035
1683385925236636200,11.18063623046875,9.938331604003906,-0.12210428714752197,0.031124621629714966
1683385925246615300,11.190615234375,9.643844604492188,-0.10295066982507706,0.05506663769483566
1683385925256625200,11.200625244140625,9.713275909423828,-0.10534487664699554,0.05267243832349777
1683385925266634800,11.210634765625,9.78989028930664,-0.10295066982507706,0.0454898327589035
1683385925276614100,11.2206142578125,9.775525093078613,-0.1149216815829277,0.019153613597154617
1683385925286624000,11.2306240234375,9.555258750915527,-0.09816227108240128,0.014365210197865963
1683385925296633600,11.240633544921875,9.751583099365234,-0.1149216815829277,0.014365210197865963
1683385925306613000,11.250613037109375,9.983820915222168,-0.1173158809542656,0.011971008032560349
